Program Time [s],AccX,AccY,AccZ
2517.21,735.84,410.16,549.32
2517.25,746.58,411.13,547.36
2517.28,740.23,416.02,546.39
2517.31,732.91,417.97,545.41
2517.35,733.4,414.55,543.46
2517.38,744.63,430.66,542.48
2517.42,727.05,401.86,541.99
2517.45,735.35,419.43,529.3
2517.48,745.61,411.13,541.5
2517.52,748.05,409.67,548.83
2517.55,737.3,416.99,551.27
2517.59,740.23,416.02,546.39
2517.62,740.23,408.69,540.53
2517.65,738.77,407.71,549.8
2517.69,735.35,409.18,553.22
2517.72,735.84,410.16,546.87
2517.76,746.09,402.83,549.8
2517.79,744.14,406.25,556.15
2517.82,738.28,417.48,548.34
2517.86,746.09,407.71,549.32
2517.89,737.3,427.73,541.99
2517.92,749.51,415.04,550.29
2517.96,757.32,407.23,547.85
2517.99,736.33,414.55,538.09
2518.03,749.51,408.2,537.6
2518.06,731.93,417.97,551.27
2518.09,735.35,401.37,553.22
2518.13,745.61,410.16,551.76
2518.16,761.72,411.62,556.15
2518.2,736.33,413.57,551.27
2518.23,737.79,400.39,540.53
2518.26,747.56,405.76,533.69
2518.3,748.54,417.48,552.25
2518.33,737.3,406.25,550.29
2518.36,744.63,414.06,547.85
2518.4,740.72,412.6,534.18
2518.43,729.98,416.02,544.43
2518.47,736.82,423.34,545.41
2518.5,745.61,417.97,546.87
2518.53,744.63,414.55,551.27
2518.57,744.14,404.79,540.04
2518.6,734.86,408.69,540.53
2518.64,745.61,412.6,548.34
2518.67,738.77,416.02,545.9
2518.7,741.7,407.23,545.9
2518.74,727.05,412.6,551.27
2518.77,736.82,405.76,547.36
2518.81,745.12,420.9,548.34
2518.84,735.84,418.95,545.9
2518.87,745.12,409.67,544.43
2518.91,737.3,410.16,533.2
2518.94,740.23,411.62,551.76
2518.98,742.68,411.62,541.02
2519.01,742.19,414.55,547.36
2519.04,743.16,411.62,541.99
2519.08,741.7,410.64,555.18
2519.11,735.84,414.06,529.79
2519.14,735.35,400.39,550.29
2519.18,744.14,397.95,542.48
2519.21,734.86,412.6,550.78
2519.25,740.23,406.74,547.36
2519.28,737.79,416.99,559.08
2519.31,737.79,432.62,553.71
2519.35,740.72,422.85,540.53
2519.38,742.68,420.41,551.27
2519.42,732.91,419.43,542.48
2519.45,749.51,407.23,542.48
2519.48,733.89,405.27,548.34
2519.52,748.54,406.25,542.48
2519.55,742.68,415.04,536.62
2519.58,741.21,428.22,543.95
2519.62,735.84,404.3,535.64
2519.65,737.3,409.18,550.78
2519.69,740.23,411.13,544.43
2519.72,732.42,421.39,545.9
2519.75,731.45,397.95,541.02
2519.79,747.56,421.39,539.55
2519.82,737.79,417.97,540.04
2519.86,726.07,419.92,547.85
2519.89,749.51,409.67,544.43
2519.92,740.72,405.27,540.04
2519.96,726.07,416.99,541.99
2519.99,740.72,416.02,545.41
2520.03,743.16,415.04,546.87
2520.06,740.72,412.11,545.41
2520.09,747.56,413.57,540.04
2520.13,733.89,426.27,541.5
2520.16,740.23,419.43,540.04
2520.2,739.26,415.53,541.5
2520.23,730.47,409.67,543.95
2520.26,727.05,399.41,537.11
2520.3,747.56,406.25,541.02
2520.33,746.09,415.53,544.43
2520.36,738.77,431.15,539.55
2520.4,750,419.43,547.85
2520.43,744.14,410.64,562.01
2520.47,741.21,402.83,547.36
2520.5,745.61,417.48,530.27
2520.53,734.86,404.79,542.97
2520.57,739.26,418.95,563.96
2520.6,744.14,404.3,537.11
2520.64,745.12,401.86,539.06
2520.67,734.86,426.27,551.27
2520.7,760.74,409.67,551.27
2520.74,735.35,409.67,544.43
2520.77,738.77,416.99,541.02
2520.81,743.16,413.57,546.39
2520.84,738.28,413.57,538.09
2520.87,749.51,403.81,553.71
2520.91,733.4,407.23,562.5
2520.94,735.84,417.97,542.97
2520.97,732.91,405.27,551.76
2521.01,740.23,409.67,541.5
2521.04,746.58,418.95,543.95
2521.08,730.47,417.97,536.13
2521.11,742.19,416.5,534.18
2521.14,737.3,407.23,539.06
2521.18,729,410.64,546.39
2521.21,742.19,429.69,541.5
2521.25,736.82,416.5,540.04
2521.28,727.05,413.09,549.32
2521.31,740.23,413.57,544.92
2521.35,734.86,411.13,552.73
2521.38,728.52,411.13,545.41
2521.42,739.75,412.6,543.46
2521.45,723.63,426.27,536.62
2521.48,747.56,405.27,545.9
2521.52,748.05,418.46,542.97
2521.55,744.14,415.53,551.27
2521.58,731.45,416.02,551.27
2521.62,737.79,406.25,560.55
2521.65,741.7,427.25,552.73
2521.69,732.42,416.02,549.32
2521.72,718.75,422.36,544.43
2521.75,726.56,416.99,549.8
2521.79,735.35,408.2,549.32
2521.82,747.56,419.92,545.9
2521.86,740.23,421.87,534.67
2521.89,739.75,416.5,545.9
2521.92,734.37,416.99,548.34
2521.96,738.77,400.88,539.55
2521.99,743.65,426.76,539.55
2522.03,747.07,405.76,534.18
2522.06,733.4,413.57,560.55
2522.09,752.44,417.97,553.22
2522.13,725.59,409.67,547.85
2522.16,747.07,415.04,537.11
2522.19,749.51,411.13,555.66
2522.23,734.86,406.25,542.48
2522.26,737.79,412.6,542.97
2522.3,727.54,406.74,545.9
2522.33,740.23,409.18,546.39
2522.36,726.07,413.57,553.22
2522.4,746.58,416.5,550.29
2522.43,727.54,416.02,540.04
2522.47,743.16,406.25,535.16
2522.5,743.16,396.97,547.36
2522.53,737.79,405.27,550.78
2522.57,750.98,406.74,533.2
2522.6,738.28,409.67,548.34
2522.64,733.89,416.5,554.2
2522.67,749.51,415.04,540.04
2522.7,738.28,407.71,544.92
2522.74,750.49,419.92,548.34
2522.77,726.56,415.53,547.85
2522.8,734.37,421.87,549.8
2522.84,740.23,411.62,546.39
2522.87,732.42,407.71,544.92
2522.91,754.88,427.25,553.71
2522.94,733.4,419.43,544.43
2522.97,730.47,405.76,546.39
2523.01,730.47,402.34,554.2
2523.04,745.61,408.69,531.74
2523.08,754.39,410.64,535.64
2523.11,737.79,419.92,561.04
2523.14,743.65,419.43,540.04
2523.18,746.09,403.32,536.62
2523.21,727.54,409.18,538.57
2523.25,740.23,414.55,545.41
2523.28,735.84,422.36,542.97
2523.31,738.28,415.04,546.87
2523.35,742.68,398.44,544.92
2523.38,739.26,414.06,555.18
2523.41,742.68,418.46,548.34
2523.45,736.82,414.55,545.9
2523.48,748.54,422.85,536.13
2523.52,735.84,410.16,550.78
2523.55,738.77,411.62,537.6
2523.58,735.84,405.76,543.95
2523.62,735.84,417.48,549.32
2523.65,747.07,404.3,543.95
2523.69,738.28,415.04,542.48
2523.72,745.12,412.11,543.46
2523.75,725.1,421.87,534.67
2523.79,730.96,423.34,540.53
2523.82,751.95,422.85,557.13
2523.86,740.23,404.79,549.8
2523.89,747.07,412.11,549.32
2523.92,731.93,417.48,530.27
2523.96,745.12,407.23,541.02
2523.99,735.35,419.92,541.99
2524.02,732.91,416.99,538.57
2524.06,735.84,420.9,541.99
2524.09,751.95,421.39,547.85
2524.13,738.28,407.71,539.55
2524.16,729,411.13,550.78
2524.19,738.28,410.16,552.25
2524.23,730.96,415.04,535.64
2524.26,744.63,403.81,542.48
2524.3,747.56,417.48,539.55
2524.33,733.89,407.71,561.52
2524.36,731.45,425.78,533.69
2524.4,741.21,427.25,547.85
2524.43,735.84,408.2,548.83
2524.47,750,395.02,544.92
2524.5,760.25,414.06,544.43
2524.53,733.4,412.6,545.41
2524.57,736.33,417.97,550.78
2524.6,739.26,413.57,541.02
2524.64,732.91,422.85,533.2
2524.67,737.3,414.55,555.18
2524.7,748.54,411.62,548.83
2524.74,742.68,417.97,553.71
2524.77,731.45,404.79,558.59
2524.8,757.32,417.48,548.83
2524.84,706.54,435.06,507.81
2524.87,737.79,416.02,538.09
2524.91,744.63,388.18,575.68
2524.94,734.37,409.67,564.45
2524.97,722.17,431.64,522.46
2525.01,735.84,433.11,513.18
2525.04,750,405.76,556.15
2525.08,731.45,415.04,561.04
2525.11,732.91,410.16,522.95
2525.14,729,428.22,532.23
2525.18,751.95,411.62,559.08
2525.21,741.7,405.27,557.62
2525.24,735.35,406.25,539.55
2525.28,717.29,416.5,533.2
2525.31,746.58,432.62,550.78
2525.35,728.52,409.67,543.46
2525.38,742.68,406.25,546.87
2525.41,717.29,405.76,559.57
2525.45,729.98,409.67,547.36
2525.48,753.42,420.9,542.97
2525.52,737.3,421.87,546.87
2525.55,748.05,411.62,540.53
2525.58,740.72,411.62,538.09
2525.62,730.47,407.71,547.36
2525.65,740.23,403.32,545.9
2525.69,732.42,410.16,556.64
2525.72,748.05,419.43,548.34
2525.75,732.42,410.16,546.39
2525.79,737.3,411.13,547.85
2525.82,734.86,411.62,546.87
2525.85,748.54,419.92,548.83
2525.89,731.93,418.95,539.06
2525.92,739.26,424.8,538.57
2525.96,736.82,414.06,551.27
2525.99,747.07,407.23,541.5
2526.02,728.03,418.46,534.18
2526.06,743.65,401.86,543.46
2526.09,734.37,401.37,554.69
2526.13,746.09,408.2,554.2
2526.16,745.61,415.04,544.43
2526.19,741.7,417.48,533.69
2526.23,745.12,407.23,540.53
2526.26,743.16,405.27,544.43
2526.3,741.21,408.2,539.06
2526.33,740.23,418.46,551.76
2526.36,735.84,412.11,553.22
2526.4,741.7,408.69,529.3
2526.43,736.33,405.76,542.97
2526.47,747.56,416.99,563.48
2526.5,742.19,406.25,542.97
2526.53,736.82,400.39,544.43
2526.57,737.3,418.95,539.55
2526.6,745.12,417.48,537.6
2526.63,743.16,419.92,546.39
2526.67,747.56,407.23,547.36
2526.7,734.86,409.67,540.53
2526.74,735.84,420.9,532.23
2526.77,733.89,414.55,547.85
2526.8,746.09,415.53,541.02
2526.84,733.4,413.57,553.71
2526.87,741.21,401.37,542.48
2526.91,757.32,411.13,542.48
2526.94,726.07,414.06,555.18
2526.97,741.7,406.74,535.16
2527.01,744.63,418.46,537.11
2527.04,727.54,411.13,539.06
2527.07,731.45,417.97,546.87
2527.11,742.19,414.55,542.97
2527.14,745.12,413.57,544.92
2527.18,746.58,406.74,537.6
2527.21,735.35,416.99,539.55
2527.24,735.84,407.23,549.32
2527.28,747.56,436.04,553.71
2527.31,734.37,406.74,545.9
2527.35,743.16,413.09,543.46
2527.38,748.54,397.95,543.46
2527.41,728.03,408.2,552.73
2527.45,729,415.53,548.83
2527.48,741.7,421.39,534.67
2527.52,738.77,402.34,540.04
2527.55,748.54,411.13,550.78
2527.58,740.23,404.79,542.48
2527.62,730.47,413.57,540.53
2527.65,728.03,422.36,544.43
2527.69,740.72,411.62,547.36
2527.72,736.33,405.76,546.39
2527.75,739.26,414.06,542.48
2527.79,704.59,398.93,543.46
2527.82,740.23,380.86,533.2
2527.85,732.91,409.18,537.6
2527.89,744.14,412.11,546.87
2527.92,737.3,402.34,553.22
2527.96,731.93,413.57,529.3
2527.99,746.58,417.97,547.85
2528.02,740.72,423.34,541.99
2528.06,739.26,425.29,541.02
2528.09,739.26,400.88,539.06
2528.13,739.26,417.48,546.39
2528.16,796.87,491.21,562.99
2528.19,730.47,408.2,546.39
2528.23,741.7,389.16,530.27
2528.26,745.61,418.46,563.48
2528.29,744.14,419.43,544.92
2528.33,738.77,432.62,539.06
2528.36,750,403.32,522.46
2528.4,744.63,401.86,556.15
2528.43,727.54,416.5,541.99
2528.46,716.8,419.92,533.69
2528.5,746.09,411.13,537.11
2528.53,744.14,402.34,541.5
2528.57,745.12,400.88,561.04
2528.6,739.26,418.46,548.34
2528.63,729.98,424.8,533.69
2528.67,738.77,424.8,552.25
2528.7,728.52,410.64,554.2
2528.74,747.07,405.27,539.55
2528.77,739.26,429.69,541.5
2528.8,747.56,433.11,552.25
2528.84,757.32,406.25,532.71
2528.87,744.63,405.76,557.62
2528.91,728.52,404.79,540.04
2528.94,736.82,423.34,542.97
2528.97,736.82,409.67,557.13
2529.01,734.37,405.27,549.32
2529.04,744.63,414.55,535.64
2529.07,744.63,426.76,544.92
2529.11,752.44,404.3,538.57
2529.14,741.21,416.5,549.32
2529.18,741.21,402.83,542.97
2529.21,731.45,420.9,545.41
2529.24,750.98,414.06,549.8
2529.28,725.1,404.79,545.41
2529.31,744.63,421.87,541.99
2529.35,744.14,405.76,551.76
2529.38,746.09,410.64,539.06
2529.41,734.86,418.46,541.5
2529.45,733.89,416.99,539.55
2529.48,736.33,419.92,549.32
2529.52,746.09,407.71,537.6
2529.55,735.35,413.57,558.59
2529.58,730.47,422.36,544.92
2529.62,741.21,412.6,539.55
2529.65,742.19,413.57,534.18
2529.68,741.7,415.04,547.85
2529.72,742.68,408.69,550.29
2529.75,737.3,416.02,533.2
2529.79,718.75,415.04,544.43
2529.82,672.85,405.76,544.43
2529.85,776.86,436.04,569.34
2529.89,706.54,416.5,519.04
2529.92,764.65,414.55,556.15
2529.96,736.82,401.86,538.57
2529.99,744.14,413.57,552.73
2530.02,715.33,412.6,536.62
2530.06,743.65,423.34,547.36
2530.09,745.12,406.25,549.8
2530.12,747.56,419.43,555.18
2530.16,740.72,407.71,552.73
2530.19,732.91,415.53,545.9
2530.23,746.58,425.29,542.97
2530.26,744.14,422.36,532.23
2530.29,733.89,412.6,551.76
2530.33,739.75,420.41,540.04
2530.36,734.37,416.02,545.41
2530.4,737.79,402.34,549.8
2530.43,743.16,408.2,542.97
2530.46,741.21,411.13,525.88
2530.5,740.23,416.5,540.04
2530.53,748.54,403.81,550.78
2530.57,745.12,406.74,547.36
2530.6,734.86,413.09,528.81
2530.63,725.1,416.5,547.85
2530.67,755.86,406.74,538.09
2530.7,752.44,398.93,546.87
2530.74,749.51,410.64,554.69
2530.77,748.05,412.11,550.29
2530.8,732.91,407.23,543.95
2530.84,727.05,409.18,552.25
2530.87,740.72,401.37,549.8
2530.9,735.35,410.64,532.71
2530.94,745.61,418.46,537.11
2530.97,731.45,410.16,546.39
2531.01,749.02,404.79,538.57
2531.04,729.98,416.5,546.87
2531.07,745.12,409.67,531.74
2531.11,735.84,422.36,555.66
2531.14,731.45,418.95,553.22
2531.18,732.42,404.79,547.36
2531.21,738.77,419.43,542.48
2531.24,740.23,406.74,551.27
2531.28,762.7,417.97,554.69
2531.31,738.28,415.04,540.53
2531.35,747.56,414.06,548.34
2531.38,736.82,417.97,551.27
2531.41,742.19,421.87,553.71
2531.45,740.72,419.43,538.09
2531.48,738.28,419.92,548.34
2531.51,745.12,407.71,538.09
2531.55,742.68,431.15,545.9
2531.58,738.28,415.04,550.29
2531.62,735.84,415.53,541.99
2531.65,733.4,423.83,549.8
2531.68,741.21,407.71,556.15
2531.72,742.19,414.55,544.43
2531.75,736.33,411.13,545.41
2531.79,755.37,416.5,537.11
2531.82,738.77,409.18,545.41
2531.85,742.68,405.27,546.39
2531.89,736.82,421.39,533.69
2531.92,737.79,422.85,537.11
2531.96,727.54,417.48,551.27
2531.99,735.84,408.69,561.04
2532.02,745.12,404.79,538.57
2532.06,743.16,407.23,556.15
2532.09,741.7,404.3,532.71
2532.12,747.56,415.53,545.41
2532.16,736.82,426.27,549.8
2532.19,733.89,419.92,537.11
2532.23,753.91,414.06,547.85
2532.26,736.33,410.64,543.46
2532.29,738.28,415.53,539.55
2532.33,729.49,410.64,537.11
2532.36,735.35,402.34,537.11
2532.4,733.89,413.57,551.76
2532.43,739.75,415.53,538.09
2532.46,727.54,412.6,543.95
2532.5,744.63,420.9,544.92
2532.53,756.35,409.18,546.87
2532.57,738.77,418.95,551.76
2532.6,745.12,419.43,552.73
2532.63,737.79,414.06,548.83
2532.67,744.14,416.5,541.99
2532.7,730.96,405.27,547.85
2532.73,729,417.48,542.97
2532.77,751.46,407.71,552.73
2532.8,742.68,415.53,538.09
2532.84,739.26,416.02,548.83
2532.87,749.51,416.5,544.43
2532.9,740.23,407.23,562.01
2532.94,742.19,416.02,560.55
2532.97,728.52,403.81,544.92
2533.01,750,413.57,537.6
2533.04,745.12,404.3,550.78
2533.07,735.84,421.39,544.43
2533.11,725.59,412.11,537.11
2533.14,740.72,409.18,550.29
2533.18,735.35,408.69,547.36
2533.21,728.03,402.34,549.32
2533.24,745.12,411.62,537.6
2533.28,744.14,413.57,548.83
2533.31,744.14,398.44,545.41
2533.34,739.26,407.23,536.13
2533.38,745.61,405.76,542.97
2533.41,734.37,412.6,553.71
2533.45,720.7,400.39,554.2
2533.48,740.72,404.3,542.48
2533.51,740.72,413.57,549.32
2533.55,748.54,418.46,531.25
2533.58,730.47,422.85,542.48
2533.62,728.03,422.36,543.46
2533.65,752.44,409.67,551.27
2533.68,754.88,416.02,550.29
2533.72,736.82,406.25,544.43
2533.75,747.07,414.55,545.41
2533.79,744.14,414.55,534.18
2533.82,742.68,422.36,547.85
2533.85,745.12,408.2,542.48
2533.89,741.7,410.64,538.57
2533.92,738.28,406.74,528.81
2533.95,739.75,411.62,551.27
2533.99,730.96,413.09,541.02
2534.02,746.58,403.32,532.23
2534.06,747.56,418.46,539.06
2534.09,743.65,417.97,545.9
2534.12,733.4,420.9,546.39
2534.16,735.84,410.16,548.83
2534.19,724.61,416.5,557.13
2534.23,744.63,415.53,532.23
2534.26,747.07,414.06,541.02
2534.29,742.19,412.6,541.02
2534.33,760.25,401.86,544.43
2534.36,750,413.09,543.46
2534.4,734.86,402.34,548.83
2534.43,744.14,421.39,548.83
2534.46,736.82,413.57,546.39
2534.5,739.75,406.25,543.95
2534.53,741.21,404.3,550.78
2534.56,732.91,409.67,546.87
2534.6,739.26,419.92,538.57
2534.63,743.65,418.95,529.79
2534.67,733.4,408.2,544.43
2534.7,744.63,411.13,540.53
2534.73,729.98,422.85,530.76
2534.77,750.98,427.73,540.53
2534.8,737.79,403.81,552.25
2534.84,736.82,408.69,544.43
2534.87,732.91,401.86,545.41
2534.9,737.79,409.18,546.39
2534.94,731.45,407.71,559.57
2534.97,735.84,413.57,541.02
2535.01,734.37,412.11,533.2
2535.04,749.02,422.36,545.9
2535.07,740.72,416.02,551.27
2535.11,739.75,413.09,556.15
2535.14,741.21,398.44,538.57
2535.18,734.37,411.13,551.76
2535.21,740.72,416.02,541.5
2535.24,744.14,418.46,542.97
2535.28,723.63,416.5,544.43
2535.31,731.93,409.18,558.11
2535.34,737.3,404.79,547.85
2535.38,731.45,413.57,541.5
2535.41,740.72,408.2,550.29
2535.45,730.47,424.8,552.73
2535.48,738.28,396.48,537.11
2535.51,736.82,411.62,544.92
2535.55,746.09,408.2,540.53
2535.58,725.1,419.92,532.23
2535.62,737.3,416.99,544.92
2535.65,745.12,419.43,546.87
2535.68,747.56,414.55,553.22
2535.72,745.61,409.67,547.85
2535.75,743.65,417.97,539.06
2535.78,752.93,410.16,548.34
2535.82,737.79,400.88,541.99
2535.85,737.79,407.71,544.43
2535.89,730.96,406.74,547.85
2535.92,733.89,404.3,536.13
2535.95,738.28,406.25,547.85
2535.99,739.26,414.06,545.41
2536.02,735.35,413.57,537.6
2536.06,738.28,409.18,542.48
2536.09,733.89,414.55,541.02
2536.12,738.77,404.3,554.69
2536.16,733.89,412.6,547.36
2536.19,734.86,411.13,544.43
2536.23,721.68,394.53,530.27
2536.26,742.19,413.57,543.95
2536.29,729.98,406.25,547.85
2536.33,734.86,405.76,542.48
2536.36,744.14,427.25,534.67
2536.4,738.77,404.79,543.95
2536.43,730.47,403.81,542.48
2536.46,734.86,423.34,542.97
2536.5,733.89,403.81,538.57
2536.53,737.79,418.46,541.02
2536.56,739.26,410.64,542.97
2536.6,744.63,409.18,540.53
2536.63,744.14,410.64,543.95
2536.67,743.16,406.74,540.04
2536.7,739.26,398.44,546.39
2536.73,734.86,420.41,552.25
2536.77,734.37,413.09,539.06
2536.8,739.75,412.6,536.13
2536.84,737.79,416.02,542.48
2536.87,743.16,420.41,541.02
2536.9,732.91,401.86,545.9
2536.94,736.82,420.9,544.43
2536.97,742.19,404.79,555.66
2537,728.52,409.18,542.48
2537.04,739.75,421.87,541.02
2537.07,741.7,413.57,539.06
2537.11,744.63,413.09,550.78
2537.14,741.7,401.37,545.41
2537.17,738.28,412.11,538.09
2537.21,742.68,418.46,553.22
2537.24,742.19,416.5,545.9
2537.28,738.77,407.23,547.85
2537.31,738.77,422.85,533.69
2537.34,737.79,420.9,532.71
2537.38,745.61,403.81,544.43
2537.41,725.59,414.06,548.34
2537.45,742.68,411.62,551.27
2537.48,744.14,414.06,538.57
2537.51,735.84,402.34,547.36
2537.55,750.49,406.25,550.78
2537.58,728.03,423.34,546.39
2537.61,737.3,404.3,543.95
2537.65,738.77,412.6,546.87
2537.68,738.77,410.64,558.59
2537.72,749.51,409.18,541.99
2537.75,745.12,418.95,547.36
2537.78,745.12,415.04,537.11
2537.82,734.86,406.74,546.87
2537.85,738.77,418.95,542.48
2537.89,731.93,412.11,545.41
2537.92,744.63,416.99,546.39
2537.95,748.05,405.76,544.92
2537.99,744.14,405.27,546.39
2538.02,735.84,425.78,551.76
2538.06,732.42,410.16,535.16
2538.09,737.3,403.81,548.34
2538.12,732.91,414.06,557.13
2538.16,735.35,403.81,548.34
2538.19,745.12,404.79,544.43
2538.22,744.14,410.16,536.62
2538.26,745.61,420.9,543.95
2538.29,738.77,417.48,542.97
2538.33,726.56,419.92,540.04
2538.36,739.75,414.55,543.46
2538.39,750.49,410.64,541.99
2538.43,736.33,404.79,551.76
2538.46,738.28,395.02,532.23
2538.5,746.58,423.34,548.34
2538.53,732.91,405.27,554.2
2538.56,740.72,404.79,536.13
2538.6,746.58,416.5,549.8
2538.63,745.61,407.23,538.57
2538.67,725.59,410.64,538.57
2538.7,733.4,405.27,544.43
2538.73,737.3,415.53,543.95
2538.77,730.47,408.2,521.97
2538.8,734.86,406.25,550.29
2538.83,729,426.27,545.9
2538.87,738.77,408.69,534.67
2538.9,739.26,412.6,535.16
2538.94,738.77,420.41,553.22
2538.97,731.45,409.67,551.76
2539,742.19,405.76,538.57
2539.04,747.56,411.13,546.39
2539.07,729.98,413.09,538.09
2539.11,725.59,415.04,541.5
2539.14,739.26,401.37,549.8
2539.17,744.63,401.86,549.32
2539.21,740.72,406.74,545.9
2539.24,737.3,419.43,540.53
2539.28,748.54,405.27,551.27
2539.31,754.39,414.55,543.46
2539.34,733.4,417.48,544.43
2539.38,744.63,416.5,548.34
2539.41,736.82,412.11,541.5
2539.45,754.88,416.5,550.29
2539.48,734.37,420.9,540.53
2539.51,736.82,408.2,549.32
2539.55,740.72,412.11,545.9
2539.58,751.95,408.69,539.55
2539.61,756.84,399.41,545.9
2539.65,742.19,407.23,545.41
2539.68,736.33,424.8,549.8
2539.72,742.68,407.71,553.71
2539.75,733.4,408.2,541.5
2539.78,736.82,419.92,547.85
2539.82,738.77,424.32,550.78
2539.85,734.37,405.27,554.2
2539.89,734.37,404.3,546.39
2539.92,734.37,413.57,536.62
2539.95,741.7,414.06,541.99
2539.99,731.93,416.99,549.32
2540.02,729.98,410.16,545.9
2540.05,748.05,423.34,539.55
2540.09,739.26,405.76,537.6
2540.12,745.12,412.11,538.09
2540.16,746.58,419.43,550.29
2540.19,751.46,406.25,548.34
2540.22,739.26,393.07,533.2
2540.26,721.68,404.79,536.62
2540.29,709.47,408.69,552.25
2540.33,754.88,417.97,541.5
2540.36,725.1,408.69,521.97
2540.39,759.28,404.79,558.59
2540.43,739.75,415.53,558.59
2540.46,738.77,420.9,545.41
2540.5,748.54,428.71,525.39
2540.53,726.56,411.62,560.06
2540.56,734.37,407.71,557.13
2540.6,743.16,422.36,541.5
2540.63,739.75,422.36,528.81
2540.67,747.07,428.71,542.48
2540.7,730.96,416.5,537.6
2540.73,754.39,404.79,558.59
2540.77,729.49,403.32,550.78
2540.8,745.61,415.53,543.95
2540.83,752.93,423.83,527.34
2540.87,738.77,413.57,525.88
2540.9,733.89,416.5,554.69
2540.94,752.44,397.95,541.99
2540.97,740.72,397.95,550.29
2541,737.79,408.69,542.97
2541.04,728.52,409.67,537.6
2541.07,731.93,415.04,539.06
2541.11,729.49,419.92,544.92
2541.14,747.56,400.88,541.02
2541.17,744.63,416.99,552.25
2541.21,737.79,405.76,545.9
2541.24,738.28,416.5,542.48
2541.28,734.86,414.06,543.95
2541.31,742.68,404.79,550.29
2541.34,742.68,412.11,547.36
2541.38,739.26,415.04,533.69
2541.41,738.28,407.71,541.99
2541.44,735.84,408.2,541.99
2541.48,743.65,409.18,544.43
2541.51,735.84,424.32,532.71
2541.55,738.28,417.48,546.39
2541.58,738.28,402.34,545.9
2541.61,746.58,406.25,541.5
2541.65,740.23,417.48,540.04
2541.68,732.91,418.95,548.83
2541.72,737.3,419.92,548.83
2541.75,738.77,407.71,548.83
2541.78,733.4,415.04,544.92
2541.82,749.02,417.97,551.27
2541.85,736.33,405.76,538.57
2541.89,752.44,411.13,529.3
2541.92,745.61,406.25,560.06
2541.95,732.42,424.8,545.9
2541.99,741.7,417.48,544.92
2542.02,739.26,416.99,539.06
2542.05,736.33,408.69,540.04
2542.09,732.42,416.5,539.55
2542.12,745.61,413.09,541.99
2542.16,727.05,403.81,544.92
2542.19,744.14,409.18,546.87
2542.22,750.98,418.95,547.36
2542.26,734.37,412.11,540.04
2542.29,746.09,399.9,541.02
2542.33,730.96,416.99,557.62
2542.36,731.93,405.27,541.99
2542.39,727.54,413.57,547.85
2542.43,733.4,404.3,538.09
2542.46,741.7,408.69,543.95
2542.5,735.84,419.92,539.06
2542.53,750,412.6,548.34
2542.56,739.75,406.74,540.04
2542.6,739.75,413.57,544.43
2542.63,743.16,413.57,551.27
2542.66,749.02,406.74,544.43
2542.7,739.75,415.53,539.55
2542.73,744.63,414.55,540.04
2542.77,757.32,417.48,543.95
2542.8,729,420.41,539.06
2542.83,725.1,410.16,535.16
2542.87,746.58,416.99,546.87
2542.9,748.05,416.5,552.73
2542.94,749.02,419.43,540.04
2542.97,729,402.34,547.85
2543,729.49,422.85,533.2
2543.04,744.14,406.74,540.53
2543.07,742.19,406.25,557.62
2543.1,733.4,407.71,549.32
2543.14,740.72,432.13,539.06
2543.17,732.91,411.62,551.27
2543.21,727.05,415.04,537.6
2543.24,756.35,410.16,544.43
2543.27,748.05,417.48,539.55
2543.31,743.16,408.69,544.43
2543.34,741.21,417.48,548.34
2543.38,753.42,417.97,549.8
2543.41,736.82,407.71,564.45
2543.44,740.23,403.81,556.15
2543.48,740.72,409.67,539.55
2543.51,750.98,417.97,534.67
2543.55,742.68,417.97,553.71
2543.58,737.3,407.71,545.41
2543.61,732.91,414.55,536.13
2543.65,747.07,424.8,548.83
2543.68,737.79,403.81,539.06
2543.72,743.65,397.95,539.55
2543.75,731.45,413.57,537.11
2543.78,731.93,416.02,547.85
2543.82,738.77,416.5,544.92
2543.85,728.52,419.92,552.73
2543.88,728.52,414.06,542.48
2543.92,737.79,421.39,535.16
2543.95,737.3,409.18,555.66
2543.99,750.98,402.83,561.04
2544.02,722.66,425.78,536.13
2544.05,737.79,409.18,532.23
2544.09,748.05,402.83,545.41
2544.12,741.7,406.25,547.36
2544.16,736.82,429.2,548.34
2544.19,745.61,424.8,543.46
2544.22,748.05,427.25,539.06
2544.26,738.77,414.55,541.99
2544.29,749.51,415.53,547.36
2544.33,734.86,418.46,538.57
2544.36,732.42,409.67,540.04
2544.39,725.1,403.32,546.39
2544.43,753.42,430.18,561.04
2544.46,738.28,396.48,542.48
2544.49,738.28,420.41,531.25
2544.53,743.16,416.99,544.92
2544.56,753.42,393.07,545.41
2544.6,729,398.93,549.32
2544.63,739.75,416.99,535.16
2544.66,742.68,413.57,539.55
2544.7,737.3,407.71,554.2
2544.73,749.51,404.3,548.34
2544.77,746.09,415.53,532.71
2544.8,735.84,407.23,536.62
2544.83,737.79,409.67,546.87
2544.87,731.93,411.62,551.27
2544.9,743.65,420.41,532.71
2544.94,735.84,404.79,543.95
2544.97,751.46,417.48,535.64
2545,734.86,413.09,539.06
2545.04,742.68,415.53,544.92
2545.07,732.42,409.67,551.27
2545.1,732.42,413.57,550.29
2545.14,728.03,403.81,532.71
2545.17,748.05,412.11,555.18
2545.21,743.65,405.27,550.78
2545.24,742.68,414.55,542.48
2545.27,737.79,416.5,540.53
2545.31,742.19,414.06,561.52
2545.34,739.75,403.81,544.92
2545.38,740.72,420.41,543.95
2545.41,743.16,412.6,538.57
2545.44,740.72,411.13,537.6
2545.48,735.84,408.2,546.39
2545.51,733.4,396,549.32
2545.55,726.56,415.53,539.55
2545.58,747.07,415.04,535.16
2545.61,730.47,414.06,549.32
2545.65,749.51,416.99,551.27
2545.68,743.16,414.55,541.99
2545.71,743.65,414.06,543.95
2545.75,742.68,420.9,549.8
2545.78,742.68,424.8,543.95
2545.82,745.61,420.41,535.16
2545.85,736.33,414.06,544.92
2545.88,739.26,420.41,556.15
2545.92,742.19,424.8,527.34
2545.95,742.68,416.5,554.2
2545.99,742.68,420.9,545.9
2546.02,733.89,398.93,538.09
2546.05,751.46,409.18,549.8
2546.09,745.12,407.23,548.83
2546.12,745.12,410.16,546.39
2546.16,743.16,416.99,557.13
2546.19,750.49,414.06,546.87
2546.22,740.72,405.27,538.09
2546.26,750.98,423.83,542.97
2546.29,744.63,411.13,544.43
2546.32,740.23,408.69,540.53
2546.36,745.12,410.64,545.9
2546.39,736.82,410.64,536.13
2546.43,763.67,420.41,537.11
2546.46,739.26,424.8,544.43
2546.49,731.45,415.04,542.97
2546.53,737.79,413.09,536.62
2546.56,750.49,418.95,538.09
2546.6,740.72,413.09,553.71
2546.63,735.35,404.79,545.41
2546.66,734.86,414.06,536.13
2546.7,733.4,413.09,541.99
2546.73,728.03,411.13,553.22
2546.77,737.79,419.43,547.36
2546.8,726.56,417.48,545.9
2546.83,739.26,408.69,545.9
2546.87,741.21,409.67,540.04
2546.9,737.3,405.76,549.32
2546.93,735.35,419.92,543.95
2546.97,741.21,411.62,542.97
2547,735.84,420.41,548.83
2547.04,746.09,401.86,539.55
2547.07,747.07,414.06,543.46
2547.1,754.88,406.74,538.09
2547.14,738.77,422.85,549.32
2547.17,737.3,416.99,536.62
2547.21,728.03,413.09,549.32
2547.24,748.05,423.83,539.06
2547.27,742.68,416.5,549.32
2547.31,737.79,407.23,536.62
2547.34,738.28,408.2,540.53
2547.38,736.82,411.13,539.55
2547.41,732.42,405.76,536.13
2547.44,753.42,407.71,543.46
2547.48,733.4,411.13,536.13
2547.51,735.84,415.53,552.25
2547.54,732.42,409.18,544.92
2547.58,731.45,416.5,554.69
2547.61,751.95,415.04,542.97
2547.65,749.51,414.55,542.48
2547.68,739.26,409.18,544.43
2547.71,733.4,413.09,546.39
2547.75,737.3,416.02,538.09
2547.78,749.02,404.79,550.78
2547.82,721.19,419.43,551.27
2547.85,733.4,399.41,527.83
2547.88,743.16,410.64,546.87
2547.92,736.82,416.02,547.85
2547.95,728.03,412.11,541.02
2547.99,737.3,408.2,542.97
2548.02,742.68,418.95,550.78
2548.05,725.1,410.16,537.11
2548.09,735.35,424.8,529.79
2548.12,751.95,409.67,541.02
2548.15,747.56,409.18,546.39
2548.19,737.79,406.25,551.27
2548.22,733.89,415.04,541.99
2548.26,746.58,423.83,542.97
2548.29,736.33,411.13,543.46
2548.32,746.09,417.97,547.36
2548.36,739.75,413.09,553.22
2548.39,733.89,422.85,544.92
2548.43,749.51,418.46,542.48
2548.46,729,409.18,545.41
2548.49,734.86,412.11,545.9
2548.53,745.12,424.32,552.73
2548.56,736.82,419.43,533.2
2548.6,731.45,411.62,557.13
2548.63,745.61,415.53,543.46
2548.66,736.33,417.97,540.53
2548.7,726.56,413.09,540.04
2548.73,746.58,419.92,540.04
2548.76,736.82,405.27,542.48
2548.8,741.21,408.2,538.57
2548.83,727.54,413.09,558.59
2548.87,737.79,399.9,561.04
2548.9,748.54,412.6,553.71
2548.93,740.72,414.06,551.27
2548.97,737.79,415.04,545.9
2549,736.82,416.99,543.46
2549.04,744.63,413.57,545.41
2549.07,745.61,416.5,543.46
2549.1,740.23,408.69,548.34
2549.14,733.4,405.76,553.71
2549.17,734.86,417.48,532.71
2549.21,752.44,419.43,543.95
2549.24,752.93,407.71,539.06
2549.27,748.05,406.74,548.83
2549.31,750.98,412.6,552.73
2549.34,735.35,417.97,545.41
2549.38,744.63,404.79,538.57
2549.41,741.21,419.92,550.29
2549.44,749.51,412.6,533.69
2549.48,750.49,417.97,537.6
2549.51,730.96,417.48,542.97
2549.54,735.84,405.76,552.73
2549.58,727.54,415.53,547.85
2549.61,740.23,408.69,540.53
2549.65,728.52,436.52,545.41
2549.68,750,409.18,539.06
2549.71,733.4,412.11,550.29
2549.75,734.86,420.9,543.46
2549.78,732.91,412.6,541.5
2549.82,741.21,405.76,540.53
2549.85,746.09,406.25,541.99
2549.88,735.84,415.53,537.11
2549.92,749.02,415.04,541.5
2549.95,739.26,405.76,545.9
2549.99,735.35,414.55,548.83
2550.02,740.23,417.48,541.99
2550.05,745.61,416.99,536.13
2550.09,731.93,416.02,537.11
2550.12,727.54,416.02,539.55
2550.15,720.21,404.79,543.46
2550.19,739.75,422.36,550.29
2550.22,757.81,413.57,547.85
2550.26,755.37,403.81,551.76
2550.29,738.77,420.9,541.5
2550.32,730.47,423.34,539.06
2550.36,758.3,416.5,538.57
2550.39,741.7,409.18,545.9
2550.43,734.86,419.43,549.32
2550.46,742.68,415.53,546.87
2550.49,747.56,401.37,552.25
2550.53,736.33,405.27,542.48
2550.56,734.86,411.13,544.92
2550.59,752.93,404.79,539.55
2550.63,743.65,402.34,541.02
2550.66,739.26,417.48,541.02
2550.7,745.12,421.39,544.43
2550.73,745.12,405.27,554.2
2550.76,734.37,424.8,540.53
2550.8,732.91,411.62,546.39
2550.83,737.3,416.99,531.74
2550.87,747.07,414.06,547.36
2550.9,738.28,408.69,546.87
2550.93,730.96,410.64,541.99
2550.97,742.68,410.16,549.32
2551,741.21,417.48,545.9
2551.04,747.07,416.99,539.06
2551.07,758.79,413.09,541.5
2551.1,744.14,408.2,539.06
2551.14,733.4,415.04,550.78
2551.17,745.12,424.32,536.13
2551.21,747.56,428.71,539.55
2551.24,729.49,412.11,540.53
2551.27,743.65,414.55,539.55
2551.31,737.3,412.6,549.32
2551.34,736.33,414.55,545.9
2551.37,754.88,415.53,544.43
2551.41,750,415.53,536.13
2551.44,748.05,407.71,543.46
2551.48,749.02,412.6,533.69
2551.51,738.28,423.83,549.8
2551.54,744.63,404.3,542.97
2551.58,741.7,412.11,545.9
2551.61,731.45,410.64,540.04
2551.65,745.61,409.18,540.53
2551.68,736.33,414.55,538.57
2551.71,736.33,409.18,549.8
2551.75,737.79,417.97,542.48
2551.78,742.19,413.57,539.55
2551.82,733.89,412.6,534.18
2551.85,748.05,419.43,543.95
2551.88,739.75,420.41,541.02
2551.92,739.75,411.13,547.85
2551.95,740.23,420.41,546.39
2551.98,739.75,420.9,541.5
2552.02,732.42,400.39,545.9
2552.05,742.68,417.48,541.99
2552.09,737.79,424.8,543.95
2552.12,738.28,412.6,543.46
2552.15,740.72,404.79,543.95
2552.19,750.49,409.67,545.41
2552.22,734.86,399.41,536.62
2552.26,734.86,428.71,554.2
2552.29,732.42,417.48,535.16
2552.32,752.44,429.69,550.29
2552.36,738.77,411.62,550.78
2552.39,752.93,411.62,543.95
2552.43,739.75,416.5,545.41
2552.46,748.05,412.11,554.69
2552.49,734.37,421.87,541.5
2552.53,728.52,410.64,544.43
2552.56,736.33,412.6,542.48
2552.59,740.72,419.92,555.18
2552.63,732.91,416.02,547.85
2552.66,723.14,412.6,550.29
2552.7,740.72,403.32,544.92
2552.73,748.05,417.48,549.32
2552.76,745.12,408.69,538.09
2552.8,737.79,407.71,537.11
2552.83,750,426.27,550.78
2552.87,747.56,409.18,540.53
2552.9,735.84,415.04,541.02
2552.93,730.96,416.5,528.81
2552.97,738.28,420.9,543.95
2553,721.19,413.09,539.55
2553.04,741.7,412.6,558.11
2553.07,738.77,416.99,545.41
2553.1,737.79,410.16,542.48
2553.14,740.23,412.11,543.46
2553.17,752.93,413.57,541.99
2553.2,754.39,417.48,540.53
2553.24,734.86,406.74,546.39
2553.27,742.68,401.37,554.69
2553.31,739.26,417.48,535.16
2553.34,737.3,410.16,546.39
2553.37,739.26,402.83,548.83
2553.41,738.77,422.36,547.85
2553.44,740.72,410.64,547.36
2553.48,739.26,420.9,541.02
2553.51,736.33,420.41,549.8
2553.54,741.21,405.27,560.55
2553.58,750.49,423.83,541.99
2553.61,748.54,410.64,533.69
2553.65,754.39,409.67,541.99
2553.68,745.12,408.2,542.48
2553.71,738.28,416.5,540.04
2553.75,746.09,410.64,540.53
2553.78,732.91,413.57,550.29
2553.81,752.44,420.41,549.8
2553.85,734.86,408.69,549.8
2553.88,744.63,419.43,541.02
2553.92,743.65,411.13,546.87
2553.95,747.56,417.97,552.25
2553.98,735.35,410.64,555.18
2554.02,735.84,413.09,541.5
2554.05,750.49,402.34,539.55
2554.09,742.19,414.06,541.99
2554.12,733.89,413.57,549.8
2554.15,746.09,420.9,549.32
2554.19,756.84,419.92,539.06
2554.22,733.4,403.81,538.57
2554.26,733.4,420.41,526.37
2554.29,734.37,408.69,545.9
2554.32,741.7,424.32,536.62
2554.36,732.91,413.57,562.99
2554.39,741.7,409.18,541.02
2554.42,743.16,416.5,552.25
2554.46,752.44,415.53,538.57
2554.49,734.37,400.88,542.97
2554.53,746.58,421.87,541.5
2554.56,729.98,418.95,542.48
2554.59,735.84,409.67,549.8
2554.63,744.63,411.13,548.34
2554.66,732.91,418.46,548.83
2554.7,737.79,399.9,544.92
2554.73,743.65,416.02,547.85
2554.76,744.63,416.99,531.74
2554.8,743.16,413.09,544.43
2554.83,740.23,415.53,555.18
2554.87,737.3,407.23,541.5
2554.9,729,419.92,543.95
2554.93,747.07,415.04,551.76
2554.97,749.02,412.11,545.41
2555,743.16,412.11,543.95
2555.03,733.89,423.83,541.02
2555.07,740.72,410.64,541.02
2555.1,739.26,413.57,540.53
2555.14,743.16,409.67,537.6
2555.17,738.28,411.13,540.04
2555.2,731.45,412.11,548.34
2555.24,746.58,413.57,532.23
2555.27,738.77,420.41,548.34
2555.31,743.65,430.66,548.34
2555.34,736.33,426.27,533.69
2555.37,738.77,429.69,538.09
2555.41,733.89,410.16,543.46
2555.44,730.47,411.62,555.18
2555.48,735.84,407.71,536.62
2555.51,725.1,417.97,545.9
2555.54,729.98,410.64,559.57
2555.58,744.14,416.99,547.85
2555.61,744.14,413.09,545.9
2555.64,734.37,417.48,530.76
2555.68,738.28,415.04,548.34
2555.71,739.26,412.6,551.76
2555.75,749.51,422.36,550.29
2555.78,753.42,425.78,533.69
2555.81,735.35,425.78,543.95
2555.85,736.33,405.76,553.71
2555.88,729.98,416.5,531.74
2555.92,735.35,419.92,551.27
2555.95,736.33,411.62,546.87
2555.98,729.49,405.76,552.73
2556.02,737.79,401.86,552.73
2556.05,743.16,409.18,537.11
2556.09,744.14,408.69,546.39
2556.12,736.33,409.18,554.2
2556.15,739.26,408.69,546.87
2556.19,748.05,405.76,547.85
2556.22,746.58,410.16,545.9
2556.25,752.44,408.2,558.59
2556.29,732.91,413.09,543.46
2556.32,740.72,415.53,533.69
2556.36,734.86,410.16,546.39
2556.39,758.3,414.06,547.85
2556.42,744.63,417.48,546.87
2556.46,740.23,423.34,546.87
2556.49,743.16,428.71,541.5
2556.53,737.3,409.67,537.11
2556.56,747.56,416.02,547.85
2556.59,741.21,420.9,549.8
2556.63,740.23,421.39,547.85
2556.66,743.16,414.55,554.2
2556.7,742.19,408.2,552.25
2556.73,729.98,420.41,542.97
2556.76,731.45,420.41,543.95
2556.8,736.82,407.23,549.8
2556.83,732.42,413.09,550.29
2556.86,746.58,413.09,544.43
2556.9,739.75,405.27,530.27
2556.93,735.35,406.74,541.02
2556.97,744.63,415.04,542.97
2557,734.37,407.71,529.79
2557.03,736.33,417.97,544.92
2557.07,745.61,418.46,543.46
2557.1,735.35,405.27,548.83
2557.14,753.42,415.04,541.99
2557.17,744.14,412.6,549.8
2557.2,730.96,413.57,547.85
2557.24,740.72,409.18,557.62
2557.27,737.79,414.55,542.97
2557.31,731.93,409.18,541.02
2557.34,747.07,401.86,539.55
2557.37,744.63,421.87,543.95
2557.41,747.56,411.13,538.57
2557.44,750,409.67,548.34
2557.47,744.14,410.16,541.02
2557.51,739.75,403.32,543.46
2557.54,746.09,410.64,550.29
2557.58,739.26,409.67,531.25
2557.61,734.86,415.04,535.64
2557.64,739.26,407.23,540.53
2557.68,753.91,398.44,539.55
2557.71,736.33,410.16,540.53
2557.75,750.49,416.99,548.34
2557.78,746.09,404.79,547.85
2557.81,742.19,419.92,541.99
2557.85,734.86,414.06,543.95
2557.88,753.42,410.64,541.99
2557.92,748.05,411.13,548.83
2557.95,740.23,418.95,552.73
2557.98,742.19,415.04,542.48
2558.02,748.05,424.32,536.62
2558.05,735.35,410.64,542.97
2558.08,734.86,416.02,552.25
2558.12,740.72,417.48,532.71
2558.15,739.75,401.37,535.64
2558.19,744.63,409.18,540.53
2558.22,734.86,413.09,543.46
2558.25,735.35,405.76,538.09
2558.29,746.58,406.74,534.67
2558.32,746.58,418.46,546.39
2558.36,739.26,410.64,547.85
2558.39,742.68,421.39,534.18
2558.42,734.86,425.78,545.41
2558.46,734.86,421.87,547.85
2558.49,740.23,411.13,553.22
2558.53,734.86,399.41,547.36
2558.56,737.79,411.62,533.69
2558.59,738.77,418.95,539.55
2558.63,739.75,399.41,547.36
2558.66,749.51,409.67,554.2
2558.69,747.56,404.79,544.43
2558.73,734.37,421.87,541.5
2558.76,728.03,416.99,541.99
2558.8,741.21,416.5,538.09
2558.83,738.77,411.62,538.09
2558.86,721.19,407.71,534.67
2558.9,744.14,416.99,545.41
2558.93,740.23,411.13,542.48
2558.97,729,424.8,551.76
2559,741.7,397.95,549.8
2559.03,744.63,425.29,543.46
2559.07,741.21,410.16,538.57
2559.1,742.19,409.18,545.41
2559.14,738.77,411.13,542.48
2559.17,746.09,412.6,547.36
2559.2,742.19,415.53,547.85
2559.24,737.79,410.16,542.48
2559.27,729.49,407.71,541.02
2559.3,747.07,408.2,537.11
2559.34,741.21,398.93,548.83
2559.37,742.19,412.6,550.78
2559.41,743.16,419.92,535.64
2559.44,727.05,428.71,545.41
2559.47,730.96,417.97,544.92
2559.51,740.72,418.95,543.95
2559.54,737.3,427.73,539.55
2559.58,741.7,410.64,541.5
2559.61,736.33,417.97,544.92
2559.64,732.91,409.18,560.55
2559.68,733.4,423.34,549.8
2559.71,738.77,424.32,545.9
2559.75,717.77,415.53,528.81
2559.78,736.82,402.83,548.34
2559.81,741.21,418.95,549.32
2559.85,738.28,406.74,536.13
2559.88,745.12,419.92,548.34
2559.91,730.47,417.48,556.15
2559.95,746.09,416.5,528.32
2559.98,736.82,404.3,546.87
2560.02,741.7,416.5,547.36
2560.05,751.46,416.99,549.32
2560.08,752.44,418.46,547.36
2560.12,745.61,405.27,543.95
2560.15,744.63,416.02,535.64
2560.19,737.3,409.18,548.34
2560.22,755.37,408.2,545.41
2560.25,752.93,414.06,542.48
2560.29,743.65,417.48,537.6
2560.32,740.23,399.9,535.16
2560.36,741.21,407.71,545.41
2560.39,758.3,422.85,546.39
2560.42,753.42,421.87,556.64
2560.46,744.14,420.9,558.11
2560.49,733.4,411.62,538.57
2560.52,740.23,414.55,542.48
2560.56,744.14,418.46,558.11
2560.59,730.47,431.15,543.95
2560.63,735.84,409.67,549.32
2560.66,745.12,409.67,549.32
2560.69,740.23,410.64,540.04
2560.73,725.59,416.5,537.11
2560.76,742.19,414.06,548.34
2560.8,729,410.16,549.8
2560.83,732.42,417.48,532.71
2560.86,742.68,413.09,537.6
2560.9,743.65,414.06,553.22
2560.93,736.33,416.99,545.9
2560.97,741.7,418.46,538.09
2561,737.3,416.5,545.9
2561.03,757.81,413.09,546.87
2561.07,724.61,413.57,552.73
2561.1,738.28,425.29,535.16
2561.13,736.33,398.93,541.99
2561.17,740.72,413.09,551.76
2561.2,747.07,410.64,543.95
2561.24,740.72,420.9,538.57
2561.27,739.26,410.16,542.97
2561.3,751.46,409.67,548.83
2561.34,752.93,407.23,537.11
2561.37,726.07,406.25,549.8
2561.41,745.61,413.57,542.48
2561.44,747.07,412.11,537.6
2561.47,750,422.36,544.92
2561.51,750.49,408.69,544.92
2561.54,746.09,405.76,554.2
2561.58,743.16,407.23,551.27
2561.61,730.47,419.43,535.64
2561.64,734.86,422.36,549.32
2561.68,745.12,408.69,547.85
2561.71,755.37,410.16,535.64
2561.74,746.58,406.74,538.57
2561.78,740.23,416.99,541.99
2561.81,746.58,418.95,537.6
2561.85,734.37,421.87,546.39
2561.88,734.86,419.92,543.46
2561.91,738.77,412.6,549.32
2561.95,740.72,406.74,553.71
2561.98,743.65,410.64,547.85
2562.02,738.77,415.04,543.46
2562.05,743.16,407.71,539.55
2562.08,747.07,411.62,549.32
2562.12,746.09,400.88,550.78
2562.15,741.21,415.53,543.46
2562.19,747.07,422.36,549.8
2562.22,735.35,414.55,537.11
2562.25,742.19,408.69,550.78
2562.29,735.35,419.92,554.2
2562.32,740.72,406.74,540.53
2562.35,729,412.6,540.04
2562.39,729.98,414.55,547.36
2562.42,745.12,398.93,535.16
2562.46,743.16,419.43,537.6
2562.49,749.51,408.69,527.83
2562.52,745.12,411.62,543.46
2562.56,736.82,414.06,542.48
2562.59,719.73,403.81,541.5
2562.63,725.1,404.79,545.9
2562.66,740.72,415.04,553.71
2562.69,734.37,422.85,552.25
2562.73,742.68,428.71,536.13
2562.76,729.98,411.62,543.95
2562.8,748.05,418.46,560.55
2562.83,740.72,397.95,547.36
2562.86,736.33,416.02,544.43
2562.9,739.75,418.95,538.57
2562.93,740.23,412.6,548.83
2562.96,743.65,407.71,548.34
2563,746.09,417.97,542.48
2563.03,743.16,409.18,554.2
2563.07,734.86,414.06,545.9
2563.1,737.3,409.18,542.97
2563.13,746.09,399.9,535.64
2563.17,732.91,413.57,535.64
2563.2,748.05,416.99,540.53
2563.24,748.05,409.67,548.83
2563.27,747.07,400.39,553.71
2563.3,745.61,400.39,547.85
2563.34,729,409.67,537.11
2563.37,750.98,413.57,558.59
2563.41,739.26,409.18,548.34
2563.44,737.79,405.27,547.85
2563.47,734.37,419.92,548.83
2563.51,753.42,414.06,541.5
2563.54,735.84,411.62,549.32
2563.57,739.75,413.09,542.97
2563.61,729,408.69,540.53
2563.64,738.77,418.95,537.11
2563.68,738.28,407.71,545.41
2563.71,744.63,390.14,537.11
2563.74,740.72,421.39,551.76
2563.78,754.88,413.09,543.46
2563.81,735.35,406.25,549.8
2563.85,726.07,416.5,552.73
2563.88,734.37,416.5,538.09
2563.91,738.77,409.67,551.76
2563.95,740.23,419.43,547.36
2563.98,746.09,428.71,541.5
2564.02,739.75,399.41,554.2
2564.05,746.09,416.02,549.32
2564.08,748.05,404.3,534.18
2564.12,746.58,399.9,547.36
2564.15,742.68,421.87,538.09
2564.18,734.86,412.11,549.32
2564.22,735.84,409.67,543.95
2564.25,729.49,410.64,550.78
2564.29,735.35,415.04,555.66
2564.32,736.33,421.39,530.76
2564.35,727.05,416.02,543.95
2564.39,740.23,405.27,561.04
2564.42,754.39,405.76,543.95
2564.46,740.72,413.09,547.36
2564.49,738.28,422.85,549.32
2564.52,730.47,420.9,545.41
2564.56,731.45,415.53,547.36
2564.59,726.56,416.5,547.36
2564.63,746.58,417.97,533.2
2564.66,746.58,395.51,546.39
2564.69,740.23,406.25,549.8
2564.73,742.68,419.43,533.69
2564.76,730.96,419.43,525.88
2564.79,721.68,405.27,535.64
2564.83,729.98,413.09,548.83
2564.86,732.42,399.41,544.43
2564.9,747.56,416.5,551.76
2564.93,749.51,403.32,538.09
2564.96,744.14,406.74,541.5
2565,724.12,419.92,538.09
2565.03,726.07,413.57,544.43
2565.07,743.65,414.55,545.41
2565.1,736.33,379.88,558.11
2565.13,737.3,408.2,534.18
2565.17,730.96,428.22,535.16
2565.2,743.65,398.44,544.43
2565.24,747.07,410.64,551.76
2565.27,737.79,414.55,542.97
2565.3,743.65,416.02,542.48
2565.34,735.84,414.06,534.67
2565.37,736.33,413.09,531.74
2565.4,740.72,412.11,556.15
2565.44,748.05,415.53,553.71
2565.47,741.21,416.5,544.43
2565.51,751.46,425.78,542.97
2565.54,727.54,422.85,549.8
2565.57,671.87,393.55,555.18
2565.61,732.91,376.95,530.27
2565.64,752.44,407.71,563.96
2565.68,731.93,404.79,530.27
2565.71,746.09,427.25,541.99
2565.74,737.79,405.27,535.16
2565.78,761.23,420.9,560.06
2565.81,731.93,400.88,539.55
2565.85,738.28,409.18,537.11
2565.88,738.28,408.69,541.02
2565.91,748.05,433.59,552.25
2565.95,735.84,407.71,545.41
2565.98,751.46,425.29,541.99
2566.01,749.51,410.64,548.83
2566.05,750.98,411.62,539.55
2566.08,751.46,403.32,540.53
2566.12,734.86,403.32,559.08
2566.15,736.33,426.27,551.27
2566.18,742.19,421.87,532.71
2566.22,739.26,417.48,540.04
2566.25,761.72,412.6,556.15
2566.29,736.82,406.74,544.92
2566.32,746.09,416.5,542.48
2566.35,739.26,407.71,540.53
2566.39,741.7,403.81,543.95
2566.42,735.84,419.43,547.36
2566.46,748.54,416.5,545.9
2566.49,735.35,417.48,544.43
2566.52,737.79,398.93,543.95
2566.56,741.21,408.69,547.36
2566.59,729.98,405.76,543.46
2566.62,744.14,426.27,558.11
2566.66,755.86,410.16,537.11
2566.69,745.61,400.39,544.43
2566.73,738.77,413.09,541.99
2566.76,729.49,409.67,541.02
2566.79,733.4,413.09,548.34
2566.83,733.4,414.55,552.73
2566.86,740.72,422.36,553.71
2566.9,726.56,409.67,543.46
2566.93,740.23,419.92,545.9
2566.96,727.54,425.29,541.5
2567,737.3,410.64,538.57
2567.03,738.28,405.27,543.46
2567.07,740.72,416.99,556.15
2567.1,757.32,416.02,545.9
2567.13,745.61,418.95,546.39
2567.17,734.86,417.48,534.18
2567.2,743.65,409.18,545.41
2567.23,727.54,409.67,544.43
2567.27,739.75,422.36,547.85
2567.3,730.47,414.55,543.46
2567.34,742.19,402.34,540.53
2567.37,741.21,415.53,547.36
2567.4,733.89,419.43,552.73
2567.44,723.63,413.57,534.67
2567.47,736.82,414.06,546.39
2567.51,747.56,414.55,545.41
2567.54,750.49,423.83,534.67
2567.57,738.28,422.85,543.46
2567.61,748.54,420.9,532.71
2567.64,736.33,410.16,542.48
2567.68,732.91,410.16,548.83
2567.71,733.89,408.69,538.57
2567.74,730.47,416.99,537.6
2567.78,752.44,396.48,548.34
2567.81,734.37,413.09,541.99
2567.84,746.09,422.36,530.76
2567.88,737.79,421.39,561.52
2567.91,749.51,395.02,541.99
2567.95,740.72,413.09,548.34
2567.98,748.05,402.34,539.55
2568.01,731.45,411.62,556.64
2568.05,741.21,421.39,545.41
2568.08,748.05,417.48,531.25
2568.12,746.09,422.36,555.18
2568.15,738.28,394.53,554.69
2568.18,740.23,419.43,543.46
2568.22,749.51,415.04,525.88
2568.25,741.21,403.32,550.29
2568.29,738.28,402.34,540.53
2568.32,742.19,421.87,540.53
2568.35,743.16,409.67,541.99
2568.39,753.91,423.83,545.41
2568.42,739.26,406.25,552.25
2568.45,748.05,413.09,540.53
2568.49,749.02,418.95,547.85
2568.52,740.23,420.41,538.09
2568.56,734.37,404.3,547.36
2568.59,745.61,407.71,543.46
2568.62,744.63,415.53,542.48
2568.66,742.19,437.01,543.95
2568.69,750.98,397.46,546.87
2568.73,731.45,409.67,541.5
2568.76,745.12,409.67,537.6
2568.79,736.33,414.06,549.32
2568.83,741.21,407.71,550.29
2568.86,755.37,406.74,550.29
2568.9,755.86,415.04,541.5
2568.93,752.93,435.06,535.64
2568.96,734.37,412.11,543.95
2569,759.77,429.2,551.76
2569.03,734.37,409.18,537.11
2569.06,741.21,406.74,531.25
2569.1,741.7,407.23,549.8
2569.13,744.63,406.74,546.87
2569.17,739.75,406.25,540.53
2569.2,721.68,433.11,527.83
2569.23,731.45,423.83,543.46
2569.27,727.05,412.11,547.85
2569.3,743.16,391.6,550.29
2569.34,747.56,418.95,549.32
2569.37,722.17,418.95,521
2569.4,744.63,418.95,533.69
2569.44,740.72,407.71,550.29
2569.47,744.63,399.41,561.52
2569.51,750.49,418.46,535.64
2569.54,729.49,406.74,538.57
2569.57,739.26,408.69,537.6
2569.61,737.79,403.32,546.39
2569.64,750,414.55,544.43
2569.67,729.98,422.85,541.5
2569.71,735.84,409.18,544.43
2569.74,737.3,406.25,535.16
2569.78,737.3,418.95,541.99
2569.81,731.45,421.87,536.13
2569.84,745.61,411.62,531.25
2569.88,738.77,407.71,549.32
2569.91,742.68,407.23,543.95
2569.95,735.84,413.09,543.46
2569.98,734.37,406.25,541.02
2570.01,740.23,417.97,549.32
2570.05,744.14,420.41,547.85
2570.08,742.19,418.46,545.41
2570.12,727.54,406.74,554.69
2570.15,738.28,402.83,541.5
2570.18,746.58,412.6,550.78
2570.22,735.35,417.97,541.99
2570.25,737.79,415.53,550.29
2570.28,734.37,405.27,547.36
2570.32,729,415.53,551.27
2570.35,745.61,411.62,541.02
2570.39,736.33,418.46,539.06
2570.42,725.59,427.25,536.62
2570.45,738.28,423.34,543.95
2570.49,734.37,416.99,548.34
2570.52,744.14,411.13,534.67
2570.56,736.82,409.67,556.64
2570.59,737.3,413.09,544.92
2570.62,729.98,416.02,538.57
2570.66,752.44,410.64,548.83
2570.69,734.37,416.99,534.18
2570.73,736.33,423.83,533.69
2570.76,745.61,421.87,548.34
2570.79,735.35,404.79,544.92
2570.83,743.16,410.64,538.09
2570.86,749.51,421.39,544.43
2570.9,727.05,422.36,542.48
2570.93,734.37,417.97,539.55
2570.96,740.23,422.36,555.66
2571,740.72,408.69,525.88
2571.03,749.02,412.11,535.64
2571.06,732.91,420.9,559.08
2571.1,732.91,412.6,526.37
2571.13,732.42,416.02,548.83
2571.17,755.37,414.55,541.02
2571.2,744.14,416.02,536.62
2571.23,740.72,407.71,527.83
2571.27,731.45,407.23,538.09
2571.3,737.3,420.41,543.46
2571.34,725.59,398.44,541.02
2571.37,733.4,423.83,535.64
2571.4,729.49,431.64,535.16
2571.44,734.37,403.32,543.95
2571.47,749.51,399.9,546.39
2571.5,738.77,417.97,559.08
2571.54,752.44,416.5,539.55
2571.57,738.28,417.48,545.41
2571.61,738.28,413.09,558.59
2571.64,733.4,416.99,541.02
2571.67,727.05,407.71,535.16
2571.71,744.14,415.53,530.27
2571.74,732.91,410.16,555.18
2571.78,723.14,427.25,541.02
2571.81,747.07,426.27,545.9
2571.84,754.88,406.74,538.57
2571.88,750,404.79,546.39
2571.91,742.68,413.09,545.9
2571.95,744.63,427.25,535.64
2571.98,744.63,407.71,543.95
2572.01,743.65,417.48,543.46
2572.05,735.35,409.67,542.97
2572.08,741.7,413.09,541.5
2572.11,751.46,412.6,544.43
2572.15,723.14,408.2,538.09
2572.18,752.93,409.67,545.41
2572.22,739.75,410.16,540.04
2572.25,744.63,415.04,543.95
2572.28,749.51,403.32,538.57
2572.32,737.3,421.87,537.6
2572.35,738.77,413.57,549.32
2572.39,739.26,401.37,534.18
2572.42,741.21,412.6,547.36
2572.45,737.79,409.18,543.46
2572.49,722.17,408.69,548.34
2572.52,731.93,416.99,528.32
2572.56,725.1,412.11,543.46
2572.59,741.21,403.81,541.99
2572.62,743.65,423.34,535.16
2572.66,739.75,430.66,537.6
2572.69,741.21,406.74,533.2
2572.72,748.05,411.62,554.69
2572.76,735.35,402.34,546.87
2572.79,738.77,421.87,529.79
2572.83,738.77,422.36,541.99
2572.86,746.09,415.04,543.46
2572.89,743.16,417.48,540.53
2572.93,736.82,409.67,542.48
2572.96,740.72,417.97,551.27
2573,737.79,420.9,551.76
2573.03,738.28,412.11,543.95
2573.06,740.23,406.74,537.11
2573.1,740.23,419.92,540.53
2573.13,745.61,424.8,543.46
2573.17,738.77,417.97,538.57
2573.2,736.82,414.55,548.83
2573.23,734.37,411.13,544.92
2573.27,746.58,412.6,536.13
2573.3,742.19,415.53,527.34
2573.33,744.14,412.11,540.53
2573.37,752.93,418.46,546.87
2573.4,734.86,425.78,531.74
2573.44,763.67,405.76,545.9
2573.47,744.63,414.55,550.29
2573.5,717.29,410.16,545.41
2573.54,740.23,411.62,539.06
2573.57,740.23,400.39,527.83
2573.61,736.82,415.53,542.48
2573.64,750.98,424.8,537.11
2573.67,741.7,412.11,536.13
2573.71,754.88,421.87,550.78
2573.74,744.14,424.8,546.39
2573.78,748.05,420.9,534.67
2573.81,745.61,422.85,552.25
2573.84,746.09,403.32,549.8
2573.88,737.79,413.09,526.37
2573.91,740.72,419.43,532.71
2573.94,727.05,408.2,542.48
2573.98,738.28,396,544.43
2574.01,742.19,396.48,537.6
2574.05,742.68,433.11,547.36
2574.08,743.65,424.32,544.92
2574.11,741.21,422.85,540.04
2574.15,747.07,405.76,536.62
2574.18,736.82,409.18,544.92
2574.22,722.66,421.87,548.34
2574.25,735.35,418.95,540.53
2574.28,734.86,416.02,539.55
2574.32,735.35,415.53,528.81
2574.35,736.33,412.6,537.6
2574.39,740.23,415.53,539.55
2574.42,741.7,419.92,535.64
2574.45,738.77,414.55,541.99
2574.49,730.96,412.6,536.13
2574.52,739.26,412.11,541.5
2574.55,748.54,417.48,539.06
2574.59,734.86,421.39,548.34
2574.62,737.3,422.85,543.95
2574.66,733.4,418.46,539.55
2574.69,742.68,411.13,549.8
2574.72,742.68,413.09,541.5
2574.76,738.77,420.9,537.11
2574.79,735.35,410.16,533.2
2574.83,733.89,418.46,549.8
2574.86,733.4,419.43,548.83
2574.89,742.68,417.48,542.48
2574.93,743.16,414.06,550.78
2574.96,740.72,404.3,548.34
2575,741.7,412.11,536.13
2575.03,732.91,414.55,544.92
2575.06,747.56,426.76,537.11
2575.1,721.68,418.46,557.62
2575.13,732.42,426.76,550.78
2575.17,740.72,411.62,538.57
2575.2,747.56,405.76,550.78
2575.23,731.93,412.11,544.92
2575.27,734.86,413.09,543.95
2575.3,734.37,418.46,545.9
2575.33,746.58,419.43,544.92
2575.37,740.72,407.23,542.48
2575.4,741.7,408.2,545.9
2575.44,738.28,419.43,557.62
2575.47,733.89,422.36,537.6
2575.5,746.09,421.39,541.5
2575.54,732.42,423.83,544.43
2575.57,746.09,420.41,544.43
2575.61,743.16,411.62,544.43
2575.64,739.75,430.18,545.9
2575.67,746.58,408.69,542.97
2575.71,736.33,416.99,545.9
2575.74,731.93,414.55,541.5
2575.77,731.45,410.16,548.34
2575.81,741.21,402.34,551.27
2575.84,730.47,413.57,550.29
2575.88,749.02,415.04,541.02
2575.91,735.84,409.18,540.53
2575.94,729,411.13,542.48
2575.98,740.72,422.36,547.36
2576.01,742.68,416.99,544.43
2576.05,750.98,414.55,549.32
2576.08,751.46,416.99,537.6
2576.11,734.86,407.23,551.27
2576.15,745.12,418.95,541.99
2576.18,743.16,415.53,549.32
2576.22,731.45,408.2,548.34
2576.25,730.96,416.02,542.97
2576.28,739.75,417.97,542.97
2576.32,750.49,416.99,549.8
2576.35,734.86,417.48,531.74
2576.39,743.16,416.99,552.25
2576.42,728.52,409.18,541.5
2576.45,754.39,411.62,551.27
2576.49,728.03,411.13,543.95
2576.52,742.68,422.85,539.06
2576.55,735.35,402.83,538.57
2576.59,731.93,405.27,557.13
2576.62,734.86,419.92,556.15
2576.66,734.37,439.45,539.55
2576.69,732.42,418.95,532.23
2576.72,749.51,397.46,551.27
2576.76,732.91,414.55,542.48
2576.79,728.52,432.62,541.99
2576.83,748.54,407.23,537.6
2576.86,746.09,416.02,547.85
2576.89,737.79,409.67,547.36
2576.93,746.09,419.43,540.04
2576.96,736.82,405.76,544.92
2576.99,740.23,420.9,541.99
2577.03,730.96,415.04,549.32
2577.06,732.91,402.34,558.11
2577.1,738.28,406.74,548.83
2577.13,750.98,416.99,541.99
2577.16,744.63,410.16,533.69
2577.2,738.77,409.67,542.48
2577.23,745.12,411.62,547.36
2577.27,743.65,401.86,531.74
2577.3,747.07,407.23,552.25
2577.33,745.61,419.43,560.06
2577.37,733.4,406.74,539.06
2577.4,728.03,411.62,531.74
2577.44,734.86,407.71,542.48
2577.47,743.16,420.9,541.5
2577.5,733.89,425.78,542.48
2577.54,730.47,411.62,544.43
2577.57,749.51,413.09,541.99
2577.6,748.05,404.3,542.97
2577.64,739.26,407.71,541.99
2577.67,732.91,411.62,537.6
2577.71,733.89,404.3,538.09
2577.74,727.05,419.92,535.64
2577.77,741.7,405.76,546.39
2577.81,743.16,417.97,540.04
2577.84,732.91,409.18,534.67
2577.88,734.86,418.95,538.09
2577.91,750.49,412.6,541.02
2577.94,731.45,412.11,541.5
2577.98,756.84,416.02,541.02
2578.01,739.75,416.5,541.99
2578.05,729.49,400.88,549.8
2578.08,736.82,420.9,542.97
2578.11,750.98,422.85,539.55
2578.15,745.12,412.11,541.99
2578.18,740.72,426.76,546.39
2578.21,729.49,416.5,547.85
2578.25,742.68,419.92,558.11
2578.28,734.37,415.53,532.23
2578.32,736.33,402.83,546.39
2578.35,746.09,396.48,549.32
2578.38,741.21,418.46,531.74
2578.42,742.19,417.97,534.18
2578.45,742.68,415.53,559.57
2578.49,737.79,412.11,543.95
2578.52,732.42,424.8,538.57
2578.55,727.05,420.9,535.64
2578.59,743.16,416.99,546.87
2578.62,738.77,410.64,543.46
2578.66,742.68,412.11,541.5
2578.69,727.05,411.13,539.55
2578.72,746.09,413.09,545.41
2578.76,730.96,415.04,532.71
2578.79,742.68,413.57,542.48
2578.82,735.84,406.74,555.66
2578.86,742.19,419.43,547.85
2578.89,742.19,425.29,550.78
2578.93,759.28,423.34,527.83
2578.96,745.12,403.81,527.83
2578.99,744.63,419.92,539.06
2579.03,736.82,409.18,537.6
2579.06,750.98,426.27,544.43
2579.1,759.28,415.53,536.62
2579.13,735.35,414.55,534.18
2579.16,736.82,407.23,543.95
2579.2,744.14,421.87,537.11
2579.23,735.84,411.62,536.62
2579.27,749.51,406.74,541.5
2579.3,737.3,400.88,545.9
2579.33,762.21,412.6,544.43
2579.37,744.14,410.64,538.57
2579.4,744.63,417.48,534.67
2579.44,733.4,419.43,537.6
2579.47,741.21,419.43,539.06
2579.5,737.79,421.87,551.27
2579.54,727.05,409.18,536.13
2579.57,736.82,408.69,540.53
2579.6,740.23,426.27,545.9
2579.64,729.98,432.13,538.09
2579.67,737.3,399.9,538.09
2579.71,750.49,399.9,539.55
2579.74,733.4,417.48,544.92
2579.77,760.25,407.23,541.5
2579.81,741.7,408.2,559.08
2579.84,740.72,409.67,540.53
2579.88,727.54,416.5,535.16
2579.91,743.16,412.11,539.06
2579.94,741.7,415.53,548.34
2579.98,739.75,421.39,550.78
2580.01,742.19,419.92,548.34
2580.05,739.75,420.41,541.99
2580.08,730.47,409.67,536.13
2580.11,740.72,420.41,540.53
2580.15,734.37,408.2,538.09
2580.18,743.65,407.71,534.18
2580.21,742.68,403.81,541.5
2580.25,735.35,409.18,546.39
2580.28,743.65,422.85,546.39
2580.32,734.37,421.39,536.13
2580.35,740.23,402.83,547.85
2580.38,757.32,401.86,545.41
2580.42,737.3,413.09,548.83
2580.45,740.23,412.11,543.46
2580.49,744.14,406.74,532.23
2580.52,737.79,412.6,544.92
2580.55,746.09,403.32,542.48
2580.59,735.35,410.64,546.87
2580.62,745.61,422.36,539.55
2580.66,734.37,415.53,535.16
2580.69,739.75,411.62,557.13
2580.72,731.45,414.06,557.13
2580.76,748.05,413.57,532.23
2580.79,746.09,407.71,541.99
2580.82,742.19,402.34,535.16
2580.86,745.12,411.62,547.85
2580.89,743.65,413.09,539.06
2580.93,731.45,407.23,543.95
2580.96,726.56,407.71,547.85
2580.99,734.37,404.3,544.92
2581.03,732.91,434.08,547.85
2581.06,747.56,416.5,532.71
2581.1,741.7,414.06,542.48
2581.13,741.7,410.16,552.73
2581.16,734.37,408.69,544.92
2581.2,729,413.57,541.5
2581.23,746.09,399.9,546.39
2581.27,740.23,398.93,545.9
2581.3,747.56,410.16,538.09
2581.33,731.93,427.25,538.57
2581.37,743.16,404.79,545.41
2581.4,741.7,421.39,554.69
2581.43,728.52,419.92,550.78
2581.47,746.09,417.97,541.02
2581.5,739.26,415.53,547.36
2581.54,728.52,423.83,535.64
2581.57,747.07,413.57,553.71
2581.6,751.46,421.39,547.85
2581.64,734.37,407.71,557.13
2581.67,747.07,419.92,537.11
2581.71,730.96,417.97,539.55
2581.74,736.82,416.99,533.2
2581.77,746.58,421.87,534.67
2581.81,735.84,425.78,540.04
2581.84,741.7,422.36,544.43
2581.88,752.44,414.06,541.5
2581.91,748.54,409.18,541.5
2581.94,748.05,423.83,544.92
2581.98,735.84,421.39,536.62
2582.01,736.33,416.02,539.06
2582.04,727.05,412.6,548.83
2582.08,748.05,405.27,545.9
2582.11,738.77,421.39,545.41
2582.15,728.52,422.36,541.5
2582.18,736.33,403.81,542.97
2582.21,736.82,417.48,541.99
2582.25,747.56,414.55,542.48
2582.28,742.68,415.53,543.46
2582.32,732.42,407.71,526.86
2582.35,751.46,421.87,548.83
2582.38,746.58,416.02,543.95
2582.42,742.19,408.69,544.92
2582.45,748.54,415.04,551.76
2582.49,732.91,414.06,547.85
2582.52,745.61,411.13,539.06
2582.55,733.4,423.83,540.04
2582.59,741.21,420.41,550.29
2582.62,736.33,404.79,546.39
2582.65,731.93,416.02,540.04
2582.69,738.77,400.39,545.9
2582.72,748.05,411.62,539.55
2582.76,722.17,409.67,541.02
2582.79,737.3,415.53,539.55
2582.82,718.26,403.81,541.99
2582.86,749.51,419.43,557.13
2582.89,749.51,417.48,548.83
2582.93,735.84,416.5,538.09
2582.96,739.75,416.02,539.55
2582.99,765.14,433.59,531.74
2583.03,732.42,403.81,542.97
2583.06,741.7,420.41,557.13
2583.09,740.23,414.06,544.43
2583.13,737.3,409.18,531.74
2583.16,728.52,414.06,549.32
2583.2,723.63,417.97,547.36
2583.23,747.07,413.09,533.69
2583.26,740.72,423.83,538.57
2583.3,732.91,412.11,547.85
2583.33,748.05,414.06,548.34
2583.37,717.29,409.18,544.43
2583.4,735.35,402.34,547.85
2583.43,740.72,397.46,552.73
2583.47,757.32,415.04,543.95
2583.5,730.47,416.5,530.76
2583.54,750,425.29,538.57
2583.57,734.86,410.16,559.08
2583.6,727.05,425.29,541.5
2583.64,739.75,429.69,544.92
2583.67,736.33,407.71,550.78
2583.71,744.14,419.43,551.27
2583.74,738.28,410.16,546.39
2583.77,746.58,412.6,544.92
2583.81,733.89,399.9,540.53
2583.84,744.63,412.11,550.29
2583.87,731.93,405.27,550.29
2583.91,746.09,418.95,547.36
2583.94,733.89,411.13,546.39
2583.98,741.21,425.29,543.95
2584.01,736.33,407.71,536.13
2584.04,745.12,408.2,537.6
2584.08,732.42,422.85,559.08
2584.11,736.33,416.5,541.5
2584.15,741.21,418.46,532.23
2584.18,738.28,408.2,549.32
2584.21,728.52,409.67,545.9
2584.25,742.19,415.53,536.13
2584.28,740.23,413.57,541.02
2584.32,728.03,413.57,547.85
2584.35,738.77,405.76,536.13
2584.38,734.37,404.3,539.06
2584.42,743.65,412.11,540.04
2584.45,742.68,405.27,534.18
2584.48,727.54,410.64,548.83
2584.52,742.68,427.73,551.27
2584.55,728.03,420.9,546.87
2584.59,740.72,401.86,539.55
2584.62,741.21,417.97,540.04
2584.65,741.7,411.62,550.29
2584.69,733.89,418.46,540.53
2584.72,739.75,427.73,539.55
2584.76,752.44,419.92,548.83
2584.79,725.1,432.62,541.02
2584.82,738.77,405.27,540.04
2584.86,738.77,410.64,534.18
2584.89,748.05,421.87,541.02
2584.93,730.47,407.71,532.71
2584.96,741.21,424.32,538.57
2584.99,732.91,421.87,544.92
2585.03,734.37,411.13,539.55
2585.06,735.35,407.23,540.04
2585.09,734.37,409.18,537.6
2585.13,739.26,408.69,534.18
2585.16,730.47,406.25,540.53
2585.2,743.16,416.5,540.04
2585.23,753.91,413.57,543.46
2585.26,754.39,419.92,530.27
2585.3,744.14,402.83,541.02
2585.33,756.84,426.76,547.36
2585.37,726.07,414.06,537.6
2585.4,746.58,413.09,552.25
2585.43,736.82,405.76,535.64
2585.47,737.3,425.29,543.95
2585.5,733.89,408.69,544.43
2585.54,741.7,418.46,537.11
2585.57,735.35,419.43,546.39
2585.6,741.21,417.97,539.06
2585.64,742.68,421.87,545.9
2585.67,737.3,420.9,546.39
2585.7,739.75,413.57,532.71
2585.74,728.52,414.06,538.57
2585.77,734.86,413.09,544.43
2585.81,739.75,424.8,539.55
2585.84,743.16,413.09,539.55
2585.87,736.33,416.02,547.85
2585.91,744.63,416.5,534.67
2585.94,728.52,407.71,543.95
2585.98,742.19,416.02,537.6
2586.01,747.07,423.83,545.9
2586.04,733.4,411.13,534.67
2586.08,739.75,418.46,534.18
2586.11,738.28,406.25,527.34
2586.15,738.28,415.04,529.79
2586.18,751.95,406.25,545.9
2586.21,747.07,414.55,538.09
2586.25,742.68,404.3,547.85
2586.28,750,413.09,555.66
2586.31,727.54,425.78,540.04
2586.35,748.05,420.41,544.43
2586.38,745.12,413.09,544.43
2586.42,746.58,423.34,538.09
2586.45,734.37,425.78,556.15
2586.48,739.75,421.87,541.5
2586.52,738.77,412.11,533.69
2586.55,744.14,405.76,544.92
2586.59,746.09,409.18,545.41
2586.62,733.89,403.81,543.95
2586.65,741.21,416.5,541.99
2586.69,742.19,426.76,548.34
2586.72,739.26,417.97,540.04
2586.76,732.42,408.69,551.27
2586.79,741.7,412.11,550.78
2586.82,741.21,411.62,542.97
2586.86,742.68,414.06,540.53
2586.89,739.26,409.18,550.78
2586.92,725.1,418.46,545.41
2586.96,744.14,420.41,542.48
2586.99,744.63,418.46,543.46
2587.03,734.86,398.93,549.8
2587.06,741.21,411.62,538.09
2587.09,729.98,410.16,539.06
2587.13,732.91,419.92,539.55
2587.16,730.96,417.48,535.64
2587.2,731.93,407.71,528.81
2587.23,746.58,425.29,533.2
2587.26,746.09,412.6,539.06
2587.3,741.7,413.57,537.11
2587.33,730.47,418.46,546.39
2587.37,740.23,403.32,544.92
2587.4,747.07,399.41,538.09
2587.43,732.42,421.87,543.46
2587.47,734.86,426.27,545.41
2587.5,739.26,419.92,549.32
2587.53,747.07,413.57,549.32
2587.57,744.14,412.6,537.6
2587.6,735.84,430.66,550.78
2587.64,739.75,416.5,546.39
2587.67,741.7,416.02,533.69
2587.7,734.37,402.83,541.99
2587.74,733.4,411.62,542.97
2587.77,737.3,416.5,549.8
2587.81,741.7,414.55,550.78
2587.84,736.33,410.64,543.46
2587.87,736.82,422.36,541.99
2587.91,733.89,420.41,537.6
2587.94,752.44,413.09,534.67
2587.98,748.05,408.2,547.85
2588.01,742.68,422.36,552.73
2588.04,735.35,415.04,530.76
2588.08,729.98,403.81,534.67
2588.11,746.58,411.62,548.34
2588.15,740.23,416.5,545.41
2588.18,731.45,413.57,526.86
2588.21,741.21,412.11,537.11
2588.25,725.59,418.95,539.06
2588.28,741.21,400.88,542.48
2588.31,742.19,402.83,536.62
2588.35,736.33,422.36,542.48
2588.38,740.72,413.09,549.32
2588.42,741.7,413.09,542.48
2588.45,742.19,399.41,539.55
2588.48,741.21,416.5,539.06
2588.52,749.02,427.25,534.18
2588.55,742.68,420.41,548.34
2588.59,754.88,414.55,536.13
2588.62,744.14,402.83,542.48
2588.65,739.75,421.87,548.34
2588.69,745.12,420.41,539.55
2588.72,738.28,415.04,550.29
2588.76,747.56,437.5,537.6
2588.79,741.21,405.27,545.41
2588.82,738.28,425.29,538.57
2588.86,739.75,405.76,546.87
2588.89,733.4,410.64,531.74
2588.92,743.65,405.76,546.87
2588.96,733.4,425.29,550.29
2588.99,742.68,414.55,541.02
2589.03,751.46,414.06,537.11
2589.06,742.68,419.43,537.11
2589.09,729.49,421.87,541.99
2589.13,738.77,406.74,553.22
2589.16,734.37,413.57,536.13
2589.2,737.79,413.57,548.34
2589.23,742.19,417.97,549.8
2589.26,737.79,430.66,549.32
2589.3,741.7,416.5,538.57
2589.33,737.79,419.92,550.78
2589.36,742.68,421.39,537.11
2589.4,745.61,407.71,533.69
2589.43,732.91,408.2,542.97
2589.47,738.28,421.87,538.09
2589.5,732.42,429.2,535.64
2589.53,733.4,409.18,538.57
2589.57,734.86,411.13,533.69
2589.6,741.7,398.93,533.69
2589.64,759.77,406.74,546.39
2589.67,744.63,410.64,542.97
2589.7,750.98,413.57,536.13
2589.74,751.95,410.64,539.06
2589.77,740.23,414.55,538.57
2589.81,729.49,408.2,557.13
2589.84,735.35,429.69,534.67
2589.87,731.45,418.46,542.48
2589.91,742.19,397.95,539.06
2589.94,735.84,427.25,548.34
2589.98,722.17,408.69,529.3
2590.01,746.09,408.69,541.02
2590.04,749.02,428.22,549.32
2590.08,744.14,419.43,545.41
2590.11,737.3,419.92,538.57
2590.14,732.91,417.97,545.41
2590.18,744.14,417.48,542.48
2590.21,752.93,410.64,553.71
2590.25,739.26,411.62,546.39
2590.28,741.21,413.57,547.85
2590.31,729.98,414.06,534.18
2590.35,730.47,395.02,535.16
2590.38,743.16,409.18,548.34
2590.42,750.98,412.6,541.99
2590.45,749.51,421.39,547.85
2590.48,753.91,413.57,552.25
2590.52,738.77,430.18,543.46
2590.55,745.61,404.79,538.57
2590.59,741.7,405.76,538.57
2590.62,728.03,416.02,546.87
2590.65,738.28,414.06,544.43
2590.69,744.14,421.39,545.41
2590.72,741.7,414.55,542.97
2590.75,736.82,407.71,540.04
2590.79,739.26,413.09,546.39
2590.82,730.96,416.5,547.36
2590.86,742.68,423.83,541.99
2590.89,738.77,416.5,544.43
2590.92,741.21,414.06,533.69
2590.96,754.88,415.53,535.64
2590.99,741.7,395.51,547.85
2591.03,740.72,416.02,549.32
2591.06,740.23,401.86,545.9
2591.09,733.4,412.11,535.64
2591.13,738.77,410.64,529.3
2591.16,741.21,415.53,541.02
2591.2,745.12,415.04,545.41
2591.23,741.21,423.34,543.46
2591.26,738.28,416.02,541.5
2591.3,742.19,422.36,547.85
2591.33,737.79,416.02,542.97
2591.36,727.54,415.53,543.46
2591.4,746.58,405.27,542.97
2591.43,748.05,415.53,551.27
2591.47,731.45,417.97,549.32
2591.5,739.26,422.85,541.99
2591.53,748.05,405.76,541.02
2591.57,735.35,412.6,539.55
2591.6,734.37,422.85,533.2
2591.64,745.12,426.76,538.09
2591.67,730.47,409.67,535.16
2591.7,752.93,405.76,536.62
2591.74,736.33,418.95,553.22
2591.77,730.96,413.09,545.41
2591.81,731.93,410.16,534.67
2591.84,742.19,406.25,548.34
2591.87,736.33,402.34,536.13
2591.91,728.03,426.76,531.25
2591.94,736.82,411.62,533.69
2591.97,744.63,433.11,534.67
2592.01,740.72,425.78,542.48
2592.04,740.23,417.97,545.41
2592.08,730.47,408.2,541.99
2592.11,737.3,410.16,538.57
2592.14,750.98,414.55,532.23
2592.18,734.86,411.13,544.43
2592.21,739.26,430.66,549.8
2592.25,732.42,417.48,538.09
2592.28,750.49,399.9,547.85
2592.31,751.46,412.6,545.9
2592.35,728.03,429.69,552.25
2592.38,730.47,419.43,539.55
2592.42,748.54,415.53,531.25
2592.45,742.68,407.23,546.39
2592.48,733.4,413.57,536.62
2592.52,747.07,418.46,532.23
2592.55,743.65,419.43,544.92
2592.58,740.72,405.76,559.57
2592.62,756.84,412.6,530.76
2592.65,740.72,415.04,537.11
2592.69,747.56,416.99,538.57
2592.72,728.03,408.2,542.48
2592.75,736.33,407.23,539.55
2592.79,738.77,416.02,541.5
2592.82,747.07,408.69,545.9
2592.86,733.89,414.06,546.39
2592.89,741.7,412.11,541.02
2592.92,734.86,420.41,542.97
2592.96,726.56,425.29,544.43
2592.99,732.42,399.41,530.27
2593.03,745.61,412.6,538.09
2593.06,736.82,410.64,542.48
2593.09,739.75,413.09,537.6
2593.13,747.56,408.69,540.04
2593.16,738.77,414.55,539.55
2593.19,737.79,403.32,538.57
2593.23,739.26,409.18,541.99
2593.26,738.28,410.16,540.04
2593.3,748.05,405.27,539.55
2593.33,727.54,427.73,540.04
2593.36,738.28,416.99,547.36
2593.4,736.82,417.97,540.04
2593.43,733.89,401.86,550.78
2593.47,727.54,426.76,550.29
2593.5,727.05,406.74,538.09
2593.53,732.42,416.99,548.83
2593.57,735.84,410.16,552.73
2593.6,745.61,415.53,536.13
2593.64,744.63,405.76,542.97
2593.67,729,421.87,545.9
2593.7,733.89,424.32,539.06
2593.74,725.1,409.18,541.99
2593.77,746.09,409.67,540.53
2593.8,741.7,409.18,537.6
2593.84,742.68,435.55,542.48
2593.87,740.72,403.32,543.95
2593.91,748.05,412.11,544.92
2593.94,750,409.18,550.78
2593.97,738.28,421.39,544.92
2594.01,734.37,407.71,542.48
2594.04,744.63,397.46,536.13
2594.08,727.54,412.6,546.87
2594.11,729,418.95,545.41
2594.14,743.65,426.76,546.39
2594.18,744.14,418.46,541.99
2594.21,739.26,402.34,544.92
2594.25,736.33,408.2,556.64
2594.28,747.07,414.55,551.76
2594.31,738.28,421.87,548.83
2594.35,734.86,410.16,541.99
2594.38,737.79,407.23,538.09
2594.41,731.93,416.99,549.8
2594.45,743.65,411.62,536.62
2594.48,745.61,416.5,544.43
2594.52,730.96,415.04,533.69
2594.55,743.16,416.02,548.83
2594.58,738.28,401.86,550.78
2594.62,737.3,409.67,551.76
2594.65,738.77,408.69,531.74
2594.69,754.88,414.06,539.55
2594.72,733.89,416.5,540.04
2594.75,749.51,407.71,530.27
2594.79,739.75,421.87,542.48
2594.82,742.68,418.95,544.43
2594.86,740.23,410.16,543.46
2594.89,746.58,412.11,537.11
2594.92,747.07,418.95,547.36
2594.96,746.58,405.27,547.36
2594.99,741.21,422.36,545.9
2595.02,736.82,416.02,552.25
2595.06,741.21,417.48,538.57
2595.09,742.19,419.43,550.29
2595.13,728.52,415.04,538.57
2595.16,743.65,410.64,541.02
2595.19,732.91,416.99,552.25
2595.23,741.7,408.69,537.11
2595.26,741.21,403.32,546.87
2595.3,745.12,401.37,546.87
2595.33,739.26,414.55,541.99
2595.36,738.77,408.69,542.48
2595.4,747.07,406.25,553.22
2595.43,738.28,421.87,539.06
2595.47,734.86,419.43,542.97
2595.5,740.72,414.55,543.46
2595.53,734.37,414.55,551.76
2595.57,742.68,417.48,540.53
2595.6,744.63,410.16,538.09
2595.63,720.7,414.06,545.41
2595.67,753.91,410.64,545.9
2595.7,734.86,410.64,540.53
2595.74,747.56,409.67,544.92
2595.77,745.12,419.43,543.46
2595.8,751.95,414.55,546.87
2595.84,744.63,408.2,552.73
2595.87,748.05,419.43,537.6
2595.91,729,415.04,543.46
2595.94,740.72,415.04,548.34
2595.97,733.4,411.13,539.55
2596.01,744.63,424.32,552.25
2596.04,750,409.18,546.39
2596.08,748.05,406.25,540.04
2596.11,742.68,401.86,546.87
2596.14,736.33,414.06,540.53
2596.18,740.72,410.16,540.53
2596.21,736.33,412.6,550.29
2596.25,735.35,420.41,555.66
2596.28,739.75,405.76,547.36
2596.31,745.61,414.06,534.67
2596.35,753.91,407.71,546.87
2596.38,742.68,411.13,548.83
2596.41,743.65,406.25,537.6
2596.45,734.37,419.43,543.95
2596.48,748.54,412.6,539.55
2596.52,738.77,416.5,543.95
2596.55,741.7,423.34,536.13
2596.58,730.47,420.41,546.39
2596.62,736.33,418.46,537.6
2596.65,739.26,415.04,562.01
2596.69,727.05,410.16,530.27
2596.72,743.65,412.11,547.85
2596.75,721.68,411.62,540.04
2596.79,751.46,409.67,545.41
2596.82,743.65,429.69,536.13
2596.85,741.7,419.92,550.78
2596.89,742.68,422.85,542.48
2596.92,739.75,425.78,546.87
2596.96,745.12,416.99,552.73
2596.99,737.3,422.36,540.04
2597.02,754.88,417.48,537.11
2597.06,751.46,395.02,539.06
2597.09,742.68,410.16,553.22
2597.13,747.56,424.8,541.99
2597.16,743.16,404.3,541.99
2597.19,742.19,416.5,547.36
2597.23,737.79,419.92,547.85
2597.26,753.42,405.76,520.02
2597.3,746.09,426.76,534.67
2597.33,748.54,415.04,543.95
2597.36,730.47,421.87,547.36
2597.4,743.16,419.92,546.39
2597.43,747.56,407.71,544.43
2597.47,735.35,420.9,546.39
2597.5,745.12,421.87,544.92
2597.53,748.54,419.92,539.06
2597.57,747.07,409.18,553.71
2597.6,738.77,420.9,540.53
2597.63,735.35,402.34,546.87
2597.67,748.05,431.64,540.53
2597.7,736.82,413.57,542.48
2597.74,746.58,414.55,540.04
2597.77,746.58,414.06,546.87
2597.8,742.68,426.76,539.06
2597.84,738.77,412.6,539.06
2597.87,736.33,405.27,540.53
2597.91,739.26,414.06,536.13
2597.94,732.42,412.6,539.06
2597.97,746.09,419.43,549.32
2598.01,738.77,403.81,540.53
2598.04,737.79,400.88,548.34
2598.08,743.65,411.13,547.85
2598.11,748.54,415.53,541.99
2598.14,730.47,417.48,543.46
2598.18,744.14,417.48,539.06
2598.21,736.82,420.9,543.95
2598.24,751.46,419.92,533.69
2598.28,740.23,410.16,549.32
2598.31,729.49,415.04,534.18
2598.35,750,417.48,544.92
2598.38,739.26,413.57,546.39
2598.41,736.82,411.62,543.95
2598.45,741.7,409.67,544.92
2598.48,728.52,419.92,548.34
2598.52,737.79,406.25,538.09
2598.55,751.46,419.43,550.78
2598.58,739.75,411.13,532.71
2598.62,747.07,404.79,546.87
2598.65,746.09,409.18,537.11
2598.69,744.63,428.71,545.9
2598.72,736.82,430.18,549.32
2598.75,742.68,417.48,546.87
2598.79,743.16,418.46,543.95
2598.82,730.96,417.97,539.06
2598.85,729.49,404.3,546.39
2598.89,748.05,399.41,549.32
2598.92,737.3,408.69,540.53
2598.96,734.86,419.43,545.41
2598.99,735.35,408.2,534.67
2599.02,739.26,419.43,535.16
2599.06,732.42,416.99,546.39
2599.09,749.51,409.67,546.87
2599.13,731.93,400.88,541.5
2599.16,738.28,419.43,536.13
2599.19,747.07,415.53,538.57
2599.23,745.61,426.27,533.2
2599.26,737.79,404.79,548.83
2599.3,730.96,415.04,543.46
2599.33,736.82,418.95,543.46
2599.36,731.45,408.69,548.83
2599.4,734.37,419.43,538.57
2599.43,749.51,413.09,543.95
2599.46,751.46,409.67,551.27
2599.5,753.42,412.6,542.48
2599.53,749.51,416.5,545.9
2599.57,751.46,410.16,549.8
2599.6,738.28,415.53,550.29
2599.63,740.23,405.76,540.53
2599.67,738.77,410.64,551.27
2599.7,736.33,402.83,544.43
2599.74,737.3,413.09,542.97
2599.77,736.33,420.9,535.64
2599.8,743.16,416.5,541.5
2599.84,739.75,417.97,536.62
2599.87,748.05,407.71,543.46
2599.91,739.26,416.5,541.99
2599.94,739.75,406.74,531.25
2599.97,732.91,415.04,543.95
2600.01,741.7,416.5,548.34
2600.04,729.49,420.9,538.57
2600.07,727.05,403.81,536.13
2600.11,735.84,413.09,524.9
2600.14,737.3,410.16,537.11
2600.18,738.77,401.37,542.48
2600.21,723.63,411.62,550.29
2600.24,747.56,412.6,537.6
2600.28,750,418.46,542.97
2600.31,743.16,419.92,543.46
2600.35,748.05,403.32,538.57
2600.38,738.28,423.83,537.11
2600.41,748.05,419.43,545.9
2600.45,728.03,406.74,538.09
2600.48,743.65,421.87,543.46
2600.52,737.3,405.27,535.16
2600.55,745.61,412.11,557.62
2600.58,739.26,422.36,540.53
2600.62,750.49,420.9,535.16
2600.65,724.61,414.55,539.06
2600.68,746.09,416.02,546.39
2600.72,746.58,411.13,540.04
2600.75,755.86,405.27,538.57
2600.79,742.68,416.02,544.43
2600.82,748.54,404.79,548.34
2600.85,729.98,412.6,540.04
2600.89,750,410.16,525.88
2600.92,734.86,415.53,546.39
2600.96,734.37,415.04,557.13
2600.99,737.79,422.85,539.55
2601.02,741.7,414.55,536.62
2601.06,729.98,421.39,542.48
2601.09,740.72,414.55,540.53
2601.13,741.7,407.71,548.83
2601.16,739.26,413.09,541.99
2601.19,745.12,400.88,540.04
2601.23,746.09,416.02,543.95
2601.26,743.65,422.85,551.27
2601.29,741.7,417.48,540.53
2601.33,731.93,416.99,543.46
2601.36,756.35,414.55,545.41
2601.4,744.63,410.16,548.34
2601.43,743.65,420.41,530.76
2601.46,748.54,415.53,543.95
2601.5,746.09,424.8,543.95
2601.53,729,416.02,548.83
2601.57,738.28,414.06,531.25
2601.6,729.49,407.23,542.48
2601.63,742.19,404.3,545.9
2601.67,735.35,417.48,539.55
2601.7,740.72,416.99,545.9
2601.74,739.26,409.67,538.57
2601.77,735.84,413.57,545.9
2601.8,744.63,418.95,541.99
2601.84,739.75,416.99,540.04
2601.87,746.58,396,530.76
2601.9,723.63,423.83,537.6
2601.94,740.23,409.67,543.95
2601.97,742.19,410.16,541.99
2602.01,736.33,412.6,542.97
2602.04,743.65,414.06,531.25
2602.07,746.09,420.9,549.32
2602.11,750,414.06,547.85
2602.14,736.33,420.41,538.57
2602.18,741.7,407.71,545.9
2602.21,738.77,405.76,558.59
2602.24,741.7,403.81,534.18
2602.28,748.05,411.13,546.39
2602.31,739.75,416.99,556.15
2602.35,751.95,430.18,549.8
2602.38,728.52,396.48,535.16
2602.41,755.37,409.18,541.99
2602.45,728.03,419.43,556.64
2602.48,744.14,425.29,541.02
2602.51,741.7,414.06,535.64
2602.55,753.42,420.9,539.55
2602.58,737.79,403.32,547.36
2602.62,730.96,420.41,542.48
2602.65,739.26,415.53,530.27
2602.68,741.21,420.9,552.25
2602.72,748.05,412.6,545.41
2602.75,755.37,421.87,538.09
2602.79,729,406.25,534.67
2602.82,729,412.11,545.9
2602.85,734.86,410.64,554.2
2602.89,736.33,410.64,542.48
2602.92,731.93,418.46,533.69
2602.96,741.7,414.55,535.16
2602.99,727.54,416.5,535.64
2603.02,737.3,416.02,541.5
2603.06,740.72,408.2,536.62
2603.09,736.33,416.5,541.99
2603.12,738.28,414.55,542.97
2603.16,750.98,415.04,544.43
2603.19,731.45,403.81,541.99
2603.23,747.07,404.3,543.46
2603.26,729.98,424.32,532.71
2603.29,759.77,432.13,545.41
2603.33,731.93,433.11,538.09
2603.36,731.93,403.81,537.6
2603.4,749.02,418.95,549.32
2603.43,733.89,403.81,540.04
2603.46,746.09,407.23,535.64
2603.5,763.67,416.99,543.95
2603.53,723.14,428.71,531.25
2603.57,746.58,424.32,534.18
2603.6,734.86,414.55,549.32
2603.63,734.37,418.46,541.02
2603.67,745.12,404.3,538.09
2603.7,736.82,404.79,543.46
2603.73,735.35,418.46,541.5
2603.77,746.58,397.46,542.97
2603.8,745.61,424.8,535.16
2603.84,728.52,430.18,538.09
2603.87,736.33,407.23,540.04
2603.9,755.37,409.18,540.53
2603.94,733.4,423.34,553.22
2603.97,735.35,411.13,537.6
2604.01,758.79,411.13,539.55
2604.04,719.24,411.62,542.97
2604.07,745.61,437.01,537.11
2604.11,739.75,406.25,541.99
2604.14,744.14,409.18,548.34
2604.18,736.82,408.2,560.06
2604.21,745.12,413.09,536.13
2604.24,737.3,413.57,544.43
2604.28,728.52,421.39,550.78
2604.31,732.91,400.88,542.97
2604.34,732.42,421.39,536.13
2604.38,743.65,413.09,540.53
2604.41,750.98,414.55,547.36
2604.45,754.39,410.16,533.2
2604.48,734.37,412.11,535.16
2604.51,740.72,419.43,531.74
2604.55,750,417.97,539.06
2604.58,738.77,403.32,550.29
2604.62,729.98,411.62,544.43
2604.65,735.35,414.55,540.04
2604.68,728.03,416.5,541.99
2604.72,738.28,421.87,538.57
2604.75,740.72,412.11,546.87
2604.79,744.14,411.13,529.79
2604.82,742.68,420.9,541.99
2604.85,733.4,417.97,542.48
2604.89,751.46,399.9,532.71
2604.92,743.16,421.39,534.18
2604.96,749.02,421.39,533.2
2604.99,755.86,423.34,551.27
2605.02,739.75,407.23,541.02
2605.06,731.93,418.95,544.92
2605.09,735.84,409.18,541.02
2605.12,746.09,408.69,544.43
2605.16,750.49,415.53,537.6
2605.19,737.3,425.29,540.04
2605.23,747.07,416.02,540.53
2605.26,750.49,415.53,538.09
2605.29,750.98,425.29,537.11
2605.33,747.07,405.76,541.99
2605.36,741.21,425.78,533.2
2605.4,752.44,415.04,543.95
2605.43,738.77,417.48,543.95
2605.46,726.56,421.39,532.71
2605.5,739.75,408.2,546.39
2605.53,738.28,407.71,534.67
2605.56,742.19,415.53,540.53
2605.6,751.46,433.11,539.06
2605.63,739.26,408.2,543.95
2605.67,748.05,409.18,554.69
2605.7,742.19,415.04,541.99
2605.73,731.45,419.43,545.9
2605.77,750,406.25,537.6
2605.8,738.28,403.81,541.5
2605.84,735.84,424.32,544.92
2605.87,728.03,413.09,538.09
2605.9,731.93,416.99,546.39
2605.94,737.3,407.23,532.23
2605.97,745.12,415.53,552.25
2606.01,733.89,421.39,534.18
2606.04,732.91,427.25,532.71
2606.07,752.44,399.41,556.15
2606.11,727.54,406.74,557.62
2606.14,743.16,420.41,537.11
2606.18,740.23,418.95,536.13
2606.21,737.3,406.74,556.15
2606.24,740.72,414.06,562.01
2606.28,732.91,403.32,538.09
2606.31,743.65,416.02,532.71
2606.34,732.42,415.53,539.55
2606.38,734.37,395.02,553.71
2606.41,746.58,417.48,531.25
2606.45,741.21,401.37,537.11
2606.48,746.09,433.59,541.02
2606.51,725.1,412.6,542.48
2606.55,739.75,396.48,555.66
2606.58,738.28,397.95,548.34
2606.62,757.32,411.13,545.41
2606.65,739.26,408.2,536.62
2606.68,747.56,418.46,541.02
2606.72,741.7,405.76,547.85
2606.75,745.12,420.9,536.13
2606.79,728.52,397.95,551.27
2606.82,744.63,418.95,557.62
2606.85,731.93,419.43,539.06
2606.89,748.54,421.39,529.3
2606.92,752.44,417.97,541.99
2606.95,749.02,410.64,556.64
2606.99,740.23,401.37,546.87
2607.02,736.82,424.8,540.53
2607.06,742.19,429.2,530.27
2607.09,755.86,410.64,560.55
2607.12,753.42,396,553.22
2607.16,739.75,413.09,544.43
2607.19,727.54,433.59,532.71
2607.23,750,416.5,555.18
2607.26,735.35,398.44,561.04
2607.29,744.14,415.04,542.48
2607.33,727.54,422.36,537.6
2607.36,730.47,425.29,537.6
2607.4,740.72,401.86,551.76
2607.43,736.82,406.74,547.36
2607.46,738.77,420.41,540.04
2607.5,724.61,426.27,534.18
2607.53,750.49,419.43,549.32
2607.56,736.33,418.95,530.76
2607.6,735.84,415.53,544.43
2607.63,743.65,416.02,547.85
2607.67,758.3,419.43,547.36
2607.7,735.35,398.44,535.64
2607.73,734.86,407.71,540.53
2607.77,747.07,407.71,549.8
2607.8,737.79,422.36,554.69
2607.84,750,408.69,543.95
2607.87,738.77,401.37,533.2
2607.9,754.88,419.92,540.04
2607.94,753.42,412.6,537.11
2607.97,750.98,410.64,545.41
2608.01,758.79,418.95,533.69
2608.04,743.16,402.34,548.83
2608.07,747.07,405.27,532.23
2608.11,742.68,419.43,556.64
2608.14,744.14,423.83,547.85
2608.17,743.16,420.41,532.71
2608.21,739.26,409.67,543.46
2608.24,734.37,415.53,537.6
2608.28,737.3,424.32,539.06
2608.31,733.89,402.83,545.41
2608.34,738.28,411.62,547.36
2608.38,732.91,409.67,539.55
2608.41,742.68,412.11,552.73
2608.45,741.21,410.16,550.29
2608.48,742.19,409.67,544.92
2608.51,749.02,413.57,543.46
2608.55,746.58,415.04,539.55
2608.58,732.91,413.57,546.39
2608.62,738.77,412.11,540.04
2608.65,724.61,400.39,534.67
2608.68,739.75,402.34,542.48
2608.72,725.1,416.5,544.43
2608.75,750.49,416.99,545.9
2608.78,742.68,409.18,528.81
2608.82,737.3,411.13,537.6
2608.85,751.46,405.76,556.15
2608.89,738.28,402.34,542.97
2608.92,727.54,411.62,541.02
2608.95,754.88,423.83,547.36
2608.99,730.96,413.09,537.6
2609.02,739.26,408.2,538.57
2609.06,733.4,410.64,540.04
2609.09,749.02,403.32,539.06
2609.12,746.09,419.43,541.99
2609.16,740.72,405.76,544.92
2609.19,743.65,408.2,534.18
2609.23,732.42,430.66,540.53
2609.26,753.91,423.83,537.6
2609.29,741.21,407.23,546.87
2609.33,735.35,407.23,544.43
2609.36,745.12,415.53,552.25
2609.4,735.84,404.79,536.62
2609.43,743.16,422.85,534.67
2609.46,744.14,410.16,542.97
2609.5,729.49,415.04,544.43
2609.53,735.84,419.43,539.06
2609.56,742.19,415.04,544.92
2609.6,738.77,409.67,538.57
2609.63,745.12,422.36,547.36
2609.67,727.54,422.85,556.64
2609.7,743.65,416.02,552.73
2609.73,734.37,417.97,548.83
2609.77,748.05,414.55,531.74
2609.8,724.61,424.8,544.43
2609.84,740.23,416.99,547.85
2609.87,742.68,417.97,539.06
2609.9,746.09,409.18,536.62
2609.94,741.7,404.79,541.5
2609.97,747.56,418.95,537.6
2610,743.65,407.71,540.04
2610.04,735.35,409.67,543.46
2610.07,742.68,419.92,543.95
2610.11,741.21,415.53,534.18
2610.14,740.23,399.9,547.85
2610.17,727.54,417.97,552.25
2610.21,738.28,420.41,542.48
2610.24,732.42,411.13,541.02
2610.28,734.37,405.27,553.71
2610.31,745.61,411.62,546.87
2610.34,729.49,420.9,537.11
2610.38,736.33,404.79,546.87
2610.41,749.51,418.46,538.09
2610.45,737.79,412.11,547.85
2610.48,745.12,420.41,546.39
2610.51,736.33,420.9,541.5
2610.55,748.54,416.02,545.9
2610.58,752.44,419.43,535.64
2610.61,746.09,410.64,554.2
2610.65,741.7,427.25,541.5
2610.68,749.02,421.87,544.92
2610.72,739.26,416.99,530.76
2610.75,735.84,406.25,540.53
2610.78,733.89,418.95,538.09
2610.82,751.95,413.09,546.87
2610.85,740.72,407.71,529.79
2610.89,750,408.69,535.64
2610.92,727.05,413.09,546.87
2610.95,751.46,420.9,542.48
2610.99,743.16,402.34,540.53
2611.02,727.05,410.64,554.69
2611.06,740.72,423.34,542.97
2611.09,741.21,420.9,541.5
2611.12,727.05,420.41,539.55
2611.16,736.82,409.18,545.9
2611.19,744.14,419.92,546.39
2611.23,743.65,415.53,536.62
2611.26,728.52,422.36,546.39
2611.29,740.23,415.04,534.67
2611.33,730.47,414.06,531.74
2611.36,743.65,426.76,543.46
2611.39,751.46,417.97,559.57
2611.43,742.68,415.53,543.46
2611.46,733.89,405.27,536.62
2611.5,747.07,420.41,547.85
2611.53,745.61,416.99,538.09
2611.56,727.54,428.22,541.02
2611.6,734.86,418.95,545.9
2611.63,744.14,422.85,544.92
2611.67,741.21,418.95,542.48
2611.7,736.82,425.78,544.43
2611.73,738.28,419.92,537.6
2611.77,740.72,415.53,548.83
2611.8,749.51,410.16,547.36
2611.83,738.77,407.71,540.04
2611.87,730.96,407.71,533.69
2611.9,733.4,409.18,547.36
2611.94,737.3,420.9,539.06
2611.97,741.21,422.85,539.55
2612,735.84,417.97,537.11
2612.04,742.19,416.99,536.62
2612.07,740.72,418.46,550.29
2612.11,741.21,405.76,540.04
2612.14,736.33,412.6,548.34
2612.17,734.86,422.85,535.64
2612.21,739.26,415.04,540.53
2612.24,744.63,417.48,541.5
2612.28,735.35,408.2,549.8
2612.31,733.4,418.95,540.53
2612.34,746.09,413.09,540.04
2612.38,743.16,419.43,542.97
2612.41,739.26,414.06,540.04
2612.45,739.75,412.11,539.06
2612.48,754.39,408.69,546.39
2612.51,725.59,406.25,540.53
2612.55,736.82,411.62,548.83
2612.58,746.58,424.32,541.99
2612.61,743.65,407.71,545.9
2612.65,742.19,416.5,543.95
2612.68,738.77,425.78,548.83
2612.72,751.95,406.25,549.32
2612.75,745.61,413.57,552.25
2612.78,731.45,411.62,533.2
2612.82,741.21,419.92,544.43
2612.85,736.33,410.16,540.04
2612.89,754.88,412.11,532.23
2612.92,740.72,409.67,546.87
2612.95,738.77,406.25,540.53
2612.99,726.07,418.95,543.46
2613.02,742.19,425.29,542.48
2613.06,737.79,402.83,546.39
2613.09,732.42,402.83,540.53
2613.12,748.05,405.76,535.16
2613.16,740.72,416.02,541.5
2613.19,740.23,423.34,531.25
2613.22,734.86,419.43,535.64
2613.26,735.35,413.57,538.57
2613.29,728.52,406.74,534.18
2613.33,749.02,398.44,532.71
2613.36,737.79,408.2,532.71
2613.39,738.77,406.74,531.25
2613.43,733.89,425.29,538.57
2613.46,736.82,413.57,538.09
2613.5,747.07,417.97,533.69
2613.53,741.7,405.76,533.69
2613.56,736.82,419.92,548.34
2613.6,737.3,405.27,541.5
2613.63,755.86,416.99,539.06
2613.67,737.3,409.67,532.71
2613.7,736.33,408.2,552.25
2613.73,736.33,408.2,538.57
2613.77,754.88,416.5,542.97
2613.8,737.79,423.83,541.99
2613.83,738.77,413.09,540.04
2613.87,746.58,421.39,546.87
2613.9,748.05,394.53,546.87
2613.94,744.63,417.48,539.55
2613.97,745.61,411.13,542.48
2614,745.12,405.27,543.46
2614.04,733.89,407.71,541.99
2614.07,732.91,416.02,537.6
2614.11,735.84,405.76,549.32
2614.14,744.14,418.95,535.64
2614.17,735.84,404.79,535.16
2614.21,742.68,416.5,533.69
2614.24,748.54,416.99,533.2
2614.28,733.4,432.62,539.55
2614.31,744.63,415.04,542.97
2614.34,756.84,409.18,544.92
2614.38,739.26,415.04,545.9
2614.41,734.86,406.74,552.25
2614.44,737.79,424.32,536.13
2614.48,740.72,422.85,538.57
2614.51,740.72,408.69,532.71
2614.55,750.98,404.3,535.16
2614.58,746.09,406.25,537.6
2614.61,739.26,421.87,551.27
2614.65,751.46,415.04,547.36
2614.68,728.52,411.62,542.48
2614.72,733.89,407.71,541.5
2614.75,734.86,404.3,541.5
2614.78,738.28,407.23,530.27
2614.82,738.77,425.29,530.27
2614.85,733.89,420.9,537.11
2614.89,739.75,402.83,536.13
2614.92,735.35,417.48,544.92
2614.95,744.14,429.69,539.06
2614.99,742.19,407.71,537.6
2615.02,730.96,427.25,547.85
2615.05,728.52,411.62,553.71
2615.09,735.84,413.57,548.83
2615.12,740.72,410.16,536.62
2615.16,743.16,411.13,542.97
2615.19,728.52,416.99,551.76
2615.22,743.65,406.74,533.69
2615.26,737.79,416.5,538.09
2615.29,736.33,418.95,538.09
2615.33,747.56,409.18,539.06
2615.36,734.86,402.34,530.27
2615.39,738.28,418.46,549.8
2615.43,730.47,412.6,544.43
2615.46,741.21,416.5,553.22
2615.5,726.07,415.04,546.39
2615.53,737.79,403.32,551.27
2615.56,740.23,417.97,537.11
2615.6,730.47,418.95,556.15
2615.63,744.63,410.16,542.97
2615.66,734.37,416.99,541.5
2615.7,732.42,409.18,541.99
2615.73,714.36,411.62,539.06
2615.77,722.17,407.71,542.97
2615.8,742.19,400.88,542.48
2615.83,733.4,418.95,552.73
2615.87,742.19,401.86,543.95
2615.9,741.21,416.02,538.09
2615.94,737.79,426.76,541.5
2615.97,742.68,419.92,535.16
2616,745.12,408.69,534.67
2616.04,747.56,410.64,546.87
2616.07,729,423.83,550.29
2616.11,750.49,417.48,537.11
2616.14,744.14,403.32,549.32
2616.17,733.89,407.23,533.69
2616.21,732.91,418.46,538.57
2616.24,742.68,409.67,548.34
2616.27,718.75,425.78,547.36
2616.31,739.75,420.9,548.83
2616.34,741.7,416.5,543.95
2616.38,735.84,421.87,531.74
2616.41,740.72,408.2,542.48
2616.44,737.79,419.43,552.73
2616.48,746.09,415.04,542.97
2616.51,747.56,421.87,542.48
2616.55,745.12,413.57,550.29
2616.58,734.37,396,541.99
2616.61,737.79,405.27,547.85
2616.65,725.1,427.25,535.16
2616.68,733.89,406.25,539.06
2616.72,747.56,413.09,543.46
2616.75,728.52,408.69,551.27
2616.78,750.49,412.6,542.48
2616.82,744.14,419.92,537.11
2616.85,736.33,416.99,535.16
2616.89,741.21,402.83,553.22
2616.92,740.23,409.18,543.46
2616.95,733.89,423.34,549.32
2616.99,744.14,404.3,549.8
2617.02,736.33,412.6,551.27
2617.05,741.21,418.46,539.55
2617.09,740.72,422.36,541.5
2617.12,734.86,405.27,542.48
2617.16,731.45,407.23,546.39
2617.19,741.21,414.55,542.97
2617.22,742.19,406.74,541.99
2617.26,730.96,404.79,538.09
2617.29,739.75,421.39,527.83
2617.33,741.21,423.83,531.74
2617.36,737.79,411.13,541.02
2617.39,731.45,399.9,534.67
2617.43,743.65,421.39,541.99
2617.46,749.02,426.76,547.85
2617.5,754.39,407.23,551.76
2617.53,738.28,419.92,536.62
2617.56,733.4,419.43,540.53
2617.6,737.3,419.92,548.34
2617.63,722.17,405.76,545.9
2617.66,747.56,402.83,554.69
2617.7,733.4,418.95,542.97
2617.73,750,423.83,533.69
2617.77,742.68,415.04,525.88
2617.8,735.35,412.6,556.64
2617.83,736.82,407.71,541.99
2617.87,741.21,413.57,537.11
2617.9,746.09,414.06,555.18
2617.94,735.84,424.32,544.43
2617.97,740.72,420.41,536.13
2618,733.89,425.29,535.16
2618.04,731.93,410.16,542.97
2618.07,737.79,415.04,544.92
2618.11,752.44,412.11,533.2
2618.14,748.54,412.6,533.69
2618.17,744.63,412.6,553.71
2618.21,737.79,428.71,541.99
2618.24,740.23,419.92,541.99
2618.27,732.42,411.13,536.13
2618.31,738.77,415.53,539.55
2618.34,729.98,408.2,546.39
2618.38,730.96,406.25,556.15
2618.41,739.75,410.16,555.66
2618.44,733.4,409.67,535.16
2618.48,738.28,406.74,549.8
2618.51,728.52,415.04,531.74
2618.55,738.28,437.01,536.62
2618.58,747.07,415.04,542.97
2618.61,741.7,419.92,550.29
2618.65,743.16,415.53,546.87
2618.68,731.93,406.25,541.99
2618.72,745.61,422.36,540.53
2618.75,755.86,420.9,542.97
2618.78,738.28,413.09,531.25
2618.82,737.79,427.25,534.67
2618.85,741.21,419.43,538.57
2618.88,748.54,414.06,549.32
2618.92,733.89,416.02,537.6
2618.95,730.96,414.55,526.86
2618.99,738.77,414.55,539.06
2619.02,749.02,412.6,545.41
2619.05,729.98,408.69,529.3
2619.09,734.86,410.64,539.55
2619.12,743.16,415.04,548.34
2619.16,734.86,400.88,547.85
2619.19,742.68,415.04,540.53
2619.22,732.42,414.55,543.46
2619.26,733.89,401.86,549.32
2619.29,752.93,430.18,556.64
2619.33,732.42,410.64,529.3
2619.36,745.12,413.57,543.95
2619.39,739.26,419.92,551.76
2619.43,733.4,416.5,552.73
2619.46,731.45,419.43,532.23
2619.49,749.51,405.27,528.32
2619.53,740.23,407.71,542.48
2619.56,726.07,408.69,532.71
2619.6,738.28,406.25,532.71
2619.63,747.56,412.11,540.04
2619.66,727.05,408.2,535.16
2619.7,748.54,403.81,544.43
2619.73,740.72,427.25,552.73
2619.77,734.37,422.85,529.79
2619.8,749.51,407.71,540.04
2619.83,742.68,411.13,555.18
2619.87,746.58,416.02,548.34
2619.9,735.84,411.13,519.04
2619.94,748.05,414.06,534.67
2619.97,732.42,402.83,557.62
2620,739.26,432.13,535.16
2620.04,740.23,415.53,533.69
2620.07,733.89,422.85,540.53
2620.1,732.42,411.62,561.04
2620.14,740.23,413.09,540.04
2620.17,729.98,420.9,515.14
2620.21,740.23,429.69,541.02
2620.24,729.98,403.81,550.78
2620.27,733.89,426.27,543.46
2620.31,743.16,419.92,548.83
2620.34,730.47,426.27,535.64
2620.38,728.03,408.2,542.48
2620.41,734.86,413.09,545.9
2620.44,745.12,414.55,529.3
2620.48,733.4,411.62,528.32
2620.51,748.54,411.62,551.27
2620.55,736.82,415.53,540.04
2620.58,738.28,410.64,533.69
2620.61,742.68,415.04,534.67
2620.65,737.3,413.09,543.95
2620.68,756.35,401.86,539.06
2620.71,739.75,419.43,540.04
2620.75,740.23,417.97,543.46
2620.78,742.68,421.39,539.55
2620.82,734.37,401.86,543.46
2620.85,739.75,413.57,546.39
2620.88,732.91,432.62,537.6
2620.92,730.47,415.04,535.64
2620.95,738.28,424.8,543.95
2620.99,735.84,411.62,539.55
2621.02,744.14,420.41,535.16
2621.05,738.28,421.87,546.39
2621.09,741.7,410.64,545.9
2621.12,743.65,421.87,538.57
2621.16,743.65,421.87,542.48
2621.19,747.07,414.06,551.27
2621.22,752.44,423.34,538.09
2621.26,742.68,416.02,550.78
2621.29,743.16,425.78,547.36
2621.32,735.35,423.34,538.57
2621.36,737.3,410.16,538.57
2621.39,741.21,416.02,533.2
2621.43,738.77,401.37,543.95
2621.46,736.82,410.64,543.46
2621.49,745.61,407.71,554.2
2621.53,740.72,410.64,549.8
2621.56,742.68,405.76,523.93
2621.6,731.93,428.22,536.62
2621.63,733.89,396.48,536.13
2621.66,748.05,417.48,538.57
2621.7,729,416.02,534.18
2621.73,743.65,432.62,543.95
2621.77,728.03,422.85,532.23
2621.8,753.91,408.69,550.29
2621.83,740.72,406.74,557.62
2621.87,741.7,403.32,558.11
2621.9,749.51,423.34,536.13
2621.94,745.12,420.9,539.55
2621.97,733.89,406.25,542.48
2622,747.56,416.99,540.53
2622.04,741.7,420.41,528.32
2622.07,727.05,416.5,539.06
2622.1,736.82,417.97,556.64
2622.14,737.79,413.57,545.41
2622.17,754.88,420.41,541.02
2622.21,745.61,417.48,539.55
2622.24,726.56,421.87,548.83
2622.27,740.72,404.3,536.62
2622.31,738.28,409.18,545.41
2622.34,739.26,418.46,547.85
2622.38,745.12,417.97,537.11
2622.41,741.7,408.69,543.95
2622.44,749.02,410.64,542.48
2622.48,729,411.62,543.95
2622.51,750,429.2,544.92
2622.55,737.79,420.41,540.53
2622.58,743.16,412.6,549.8
2622.61,741.21,408.69,543.46
2622.65,739.26,414.55,550.78
2622.68,743.65,408.2,544.43
2622.71,733.4,420.9,546.39
2622.75,740.23,416.02,542.48
2622.78,741.7,420.41,540.53
2622.82,741.21,406.74,541.02
2622.85,731.93,423.83,552.73
2622.88,751.95,409.18,542.48
2622.92,734.86,421.87,529.79
2622.95,749.02,433.11,539.06
2622.99,734.37,404.79,548.34
2623.02,744.63,413.57,541.99
2623.05,748.05,412.11,530.27
2623.09,731.93,410.16,539.06
2623.12,754.88,413.57,540.04
2623.16,744.63,412.6,541.02
2623.19,753.91,407.71,534.67
2623.22,752.44,419.92,545.41
2623.26,736.82,426.76,544.92
2623.29,734.86,414.55,531.74
2623.32,737.79,409.18,545.41
2623.36,742.68,423.34,548.34
2623.39,738.28,425.78,542.97
2623.43,739.75,411.13,541.99
2623.46,733.4,416.02,548.83
2623.49,739.75,414.55,548.34
2623.53,743.16,412.6,550.29
2623.56,744.63,407.23,533.69
2623.6,736.33,420.9,536.62
2623.63,753.91,418.95,526.37
2623.66,731.93,414.55,544.92
2623.7,745.12,417.97,539.55
2623.73,744.63,406.25,539.55
2623.77,729.98,424.32,547.36
2623.8,721.19,416.5,547.85
2623.83,744.14,413.57,552.25
2623.87,728.03,415.04,545.41
2623.9,737.79,411.13,547.85
2623.93,731.45,419.92,541.5
2623.97,740.72,415.04,545.9
2624,735.35,409.67,542.48
2624.04,737.3,408.69,541.02
2624.07,736.33,401.37,542.48
2624.1,747.07,411.62,545.41
2624.14,729,411.62,531.74
2624.17,735.84,416.5,553.71
2624.21,729.98,421.87,547.36
2624.24,740.23,417.97,542.48
2624.27,746.09,414.55,541.02
2624.31,744.63,401.86,551.27
2624.34,739.26,411.13,541.5
2624.38,731.45,412.11,535.16
2624.41,743.16,418.46,536.62
2624.44,745.61,403.32,540.04
2624.48,741.7,405.76,537.6
2624.51,745.12,415.04,539.55
2624.54,737.3,409.67,551.76
2624.58,733.89,403.81,534.67
2624.61,739.75,415.53,533.2
2624.65,729,414.55,530.76
2624.68,741.21,420.9,549.8
2624.71,733.4,413.57,552.73
2624.75,743.16,415.04,542.97
2624.78,739.75,421.87,546.87
2624.82,749.51,408.2,554.2
2624.85,734.86,418.46,547.36
2624.88,751.46,404.3,532.71
2624.92,745.12,413.09,543.46
2624.95,733.4,421.39,547.85
2624.99,727.05,412.11,541.02
2625.02,747.56,415.04,528.32
2625.05,740.72,410.16,543.46
2625.09,737.79,425.29,551.76
2625.12,732.91,415.04,546.87
2625.15,746.58,433.59,541.02
2625.19,733.89,404.79,540.53
2625.22,750,410.16,559.57
2625.26,732.91,416.02,543.46
2625.29,742.19,424.32,532.71
2625.32,738.28,402.83,545.41
2625.36,741.21,413.57,553.22
2625.39,723.14,418.46,527.34
2625.43,740.72,412.6,530.76
2625.46,739.26,412.6,548.34
2625.49,737.3,417.97,533.69
2625.53,748.05,406.25,542.48
2625.56,742.19,400.88,538.09
2625.6,750,419.92,551.27
2625.63,734.86,414.55,551.76
2625.66,743.65,416.99,547.85
2625.7,737.3,423.83,537.6
2625.73,739.75,409.67,545.41
2625.76,743.65,419.92,535.16
2625.8,740.72,416.02,543.46
2625.83,749.02,415.04,527.34
2625.87,740.72,417.97,545.41
2625.9,731.93,420.41,538.57
2625.93,749.02,415.53,541.5
2625.97,733.89,413.57,546.87
2626,739.75,405.76,551.27
2626.04,722.17,414.06,542.48
2626.07,749.02,409.67,538.57
2626.1,743.16,416.02,535.16
2626.14,750.49,412.6,550.29
2626.17,738.77,413.57,530.27
2626.21,743.16,428.22,534.18
2626.24,744.63,416.5,533.69
2626.27,747.07,411.13,541.02
2626.31,734.37,426.27,541.02
2626.34,747.07,423.83,540.53
2626.37,736.33,414.55,549.8
2626.41,738.77,419.43,537.11
2626.44,741.7,410.16,545.41
2626.48,744.14,425.78,540.04
2626.51,739.75,415.53,541.99
2626.54,736.33,403.81,534.67
2626.58,758.79,411.62,541.99
2626.61,737.79,411.13,532.71
2626.65,736.33,406.25,538.09
2626.68,733.4,419.92,538.09
2626.71,741.21,420.9,539.06
2626.75,746.09,423.34,537.11
2626.78,743.65,421.87,545.9
2626.82,748.54,412.11,546.87
2626.85,735.35,405.76,541.99
2626.88,744.14,414.06,538.09
2626.92,738.28,422.36,538.57
2626.95,740.72,401.37,539.06
2626.98,747.07,425.78,541.99
2627.02,747.07,430.66,540.53
2627.05,728.52,407.23,540.53
2627.09,752.44,419.43,536.62
2627.12,740.23,411.13,532.71
2627.15,726.07,408.69,540.04
2627.19,738.77,422.85,546.87
2627.22,729.98,416.02,528.81
2627.26,754.88,414.55,526.37
2627.29,726.56,412.11,554.69
2627.32,749.51,417.97,556.64
2627.36,733.4,419.92,530.27
2627.39,754.39,416.99,538.09
2627.43,740.23,408.69,542.97
2627.46,749.02,407.23,549.8
2627.49,742.19,406.74,532.71
2627.53,743.16,416.02,534.18
2627.56,740.72,410.64,532.71
2627.59,729.49,414.06,540.53
2627.63,742.19,406.25,542.48
2627.66,731.45,420.41,537.11
2627.7,735.84,401.86,526.37
2627.73,738.77,412.11,542.48
2627.76,745.12,397.95,544.92
2627.8,740.23,416.5,532.71
2627.83,745.61,403.81,533.2
2627.87,738.77,416.99,551.27
2627.9,755.86,414.55,545.9
2627.93,755.37,409.67,532.23
2627.97,745.12,430.66,551.27
2628,742.68,416.02,560.06
2628.04,738.77,411.62,554.69
2628.07,738.77,412.11,543.95
2628.1,738.28,398.44,545.41
2628.14,731.45,413.09,542.48
2628.17,732.91,410.64,541.02
2628.21,741.7,415.53,531.74
2628.24,746.09,405.27,528.81
2628.27,728.03,415.53,536.13
2628.31,740.23,398.44,544.92
2628.34,734.37,420.41,543.46
2628.37,728.03,421.39,539.06
2628.41,743.65,416.99,539.55
2628.44,752.93,416.99,552.25
2628.48,730.47,403.81,536.62
2628.51,753.42,422.85,541.02
2628.54,741.21,407.23,545.41
2628.58,741.7,416.99,548.83
2628.61,747.56,411.62,541.5
2628.65,737.79,421.87,546.39
2628.68,739.26,416.99,551.27
2628.71,739.75,406.74,540.53
2628.75,740.23,424.8,558.59
2628.78,724.12,422.85,531.74
2628.81,744.14,417.48,545.41
2628.85,742.19,411.13,551.27
2628.88,730.96,415.04,536.13
2628.92,731.45,414.55,539.06
2628.95,744.14,408.2,546.87
2628.98,744.63,415.04,551.27
2629.02,731.45,419.43,547.85
2629.05,746.09,413.57,538.09
2629.09,739.75,412.11,533.2
2629.12,728.03,399.9,532.71
2629.15,736.82,413.57,532.71
2629.19,718.75,415.04,545.41
2629.22,745.12,405.76,532.23
2629.26,743.65,410.16,544.43
2629.29,750.98,419.43,537.6
2629.32,729,409.18,537.6
2629.36,736.82,412.6,541.02
2629.39,741.7,412.6,540.53
2629.43,746.58,424.8,534.18
2629.46,744.14,418.46,550.78
2629.49,736.33,414.06,536.13
2629.53,745.61,421.87,543.95
2629.56,744.14,417.97,542.97
2629.59,746.09,411.13,544.92
2629.63,744.63,416.02,540.04
2629.66,747.56,418.95,547.85
2629.7,746.58,413.09,527.83
2629.73,741.7,405.27,545.41
2629.76,753.91,419.43,543.46
2629.8,745.61,411.13,528.81
2629.83,737.79,410.64,544.43
2629.87,726.56,424.32,543.95
2629.9,741.21,424.8,534.18
2629.93,730.47,413.09,545.41
2629.97,727.05,414.06,546.39
2630,728.03,403.81,546.87
2630.04,740.72,407.23,538.09
2630.07,758.3,403.81,546.87
2630.1,732.42,413.57,548.34
2630.14,741.7,416.02,541.02
2630.17,739.75,431.15,545.9
2630.2,747.56,418.46,545.41
2630.24,744.14,405.27,537.11
2630.27,745.61,415.53,543.46
2630.31,729.98,420.41,545.41
2630.34,740.23,412.11,539.55
2630.37,733.89,411.62,551.27
2630.41,737.3,412.6,541.5
2630.44,737.79,422.85,543.46
2630.48,745.61,417.48,541.02
2630.51,744.63,426.76,538.09
2630.54,739.26,414.55,536.13
2630.58,737.3,403.81,533.69
2630.61,742.19,408.69,542.97
2630.65,736.82,408.69,549.32
2630.68,746.58,418.95,543.95
2630.71,723.14,413.57,538.09
2630.75,747.07,411.62,542.48
2630.78,742.68,415.04,548.34
2630.81,739.75,421.39,541.5
2630.85,752.93,413.09,536.62
2630.88,726.07,405.76,539.55
2630.92,741.21,408.2,539.55
2630.95,749.51,419.43,541.99
2630.98,734.37,408.69,537.6
2631.02,735.35,407.71,538.09
2631.05,762.7,418.46,532.71
2631.09,736.82,418.95,536.62
2631.12,743.65,425.29,538.09
2631.15,738.77,411.13,552.73
2631.19,740.72,406.74,545.41
2631.22,746.09,407.71,544.43
2631.26,745.12,427.73,537.11
2631.29,740.23,419.43,544.43
2631.32,741.7,402.83,544.43
2631.36,734.86,420.9,537.11
2631.39,743.16,407.23,553.22
2631.42,754.88,419.43,539.06
2631.46,738.28,412.6,541.5
2631.49,745.61,413.09,550.78
2631.53,732.42,412.6,542.48
2631.56,729.49,424.32,540.53
2631.59,741.7,415.53,545.41
2631.63,735.84,413.09,540.53
2631.66,730.47,410.16,529.79
2631.7,741.21,410.64,544.92
2631.73,734.86,423.34,549.32
2631.76,749.51,424.8,541.99
2631.8,736.33,414.06,537.6
2631.83,733.89,402.34,540.04
2631.87,738.77,413.57,555.18
2631.9,741.21,411.13,529.3
2631.93,740.72,416.99,538.57
2631.97,739.26,418.46,539.55
2632,749.02,416.99,535.16
2632.03,729,416.5,546.87
2632.07,748.05,422.85,550.78
2632.1,747.56,416.02,536.62
2632.14,749.51,417.48,535.16
2632.17,732.91,412.6,533.2
2632.2,738.28,418.46,544.92
2632.24,749.02,416.02,541.99
2632.27,731.93,402.83,542.48
2632.31,743.65,408.69,538.09
2632.34,751.46,414.55,532.71
2632.37,737.79,417.48,548.83
2632.41,747.07,418.95,551.27
2632.44,741.7,407.71,550.29
2632.48,737.79,412.11,542.97
2632.51,740.23,403.81,543.46
2632.54,747.56,399.41,537.6
2632.58,737.79,420.41,544.92
2632.61,743.65,418.95,541.99
2632.64,746.09,414.06,543.46
2632.68,749.51,422.36,527.83
2632.71,746.09,411.13,534.18
2632.75,734.86,405.76,542.48
2632.78,742.19,411.13,530.27
2632.81,756.84,418.46,550.78
2632.85,745.12,419.43,539.55
2632.88,737.3,430.66,549.32
2632.92,746.58,410.64,543.46
2632.95,750.49,418.46,532.71
2632.98,746.58,406.25,553.22
2633.02,729,403.32,543.46
2633.05,738.77,409.67,543.46
2633.09,739.26,421.87,545.41
2633.12,746.09,403.32,549.8
2633.15,740.72,407.71,543.46
2633.19,732.91,414.55,537.11
2633.22,744.63,417.48,538.09
2633.25,738.77,408.2,546.87
2633.29,737.3,401.37,538.09
2633.32,743.65,402.34,550.78
2633.36,734.37,405.76,544.92
2633.39,740.72,406.74,533.2
2633.42,732.91,408.69,541.5
2633.46,722.66,419.92,544.92
2633.49,743.16,412.6,543.46
2633.53,750.49,413.09,542.97
2633.56,740.72,430.66,549.32
2633.59,735.84,413.09,546.87
2633.63,746.09,409.67,533.69
2633.66,740.72,419.43,535.64
2633.7,747.07,418.46,541.02
2633.73,736.82,419.92,544.92
2633.76,738.77,406.25,541.02
2633.8,743.65,420.9,541.99
2633.83,743.16,396.97,542.48
2633.86,737.3,409.18,537.6
2633.9,740.23,410.16,536.62
2633.93,753.91,404.3,538.57
2633.97,730.47,405.76,533.2
2634,749.51,414.55,552.25
2634.03,735.35,405.76,538.57
2634.07,746.09,422.36,540.04
2634.1,743.65,411.62,552.25
2634.14,735.35,405.27,532.71
2634.17,729,414.06,538.09
2634.2,731.45,423.83,545.41
2634.24,751.95,412.6,555.66
2634.27,742.19,410.16,546.87
2634.31,744.14,415.04,541.02
2634.34,730.47,411.13,534.18
2634.37,744.63,404.79,542.97
2634.41,747.56,402.83,544.92
2634.44,736.33,415.04,533.69
2634.47,742.68,401.86,540.53
2634.51,738.77,421.87,544.43
2634.54,736.33,417.48,546.87
2634.58,735.84,431.64,536.62
2634.61,742.68,413.57,536.62
2634.64,742.19,424.8,542.97
2634.68,733.89,410.16,548.34
2634.71,745.12,415.04,541.99
2634.75,736.33,410.16,538.09
2634.78,737.3,420.41,545.41
2634.81,729.98,427.73,542.48
2634.85,734.37,409.18,541.02
2634.88,742.19,418.46,545.41
2634.92,741.21,403.32,544.43
2634.95,745.61,399.41,530.27
2634.98,735.84,407.71,538.57
2635.02,728.03,421.87,551.76
2635.05,725.59,426.27,538.09
2635.08,733.4,417.48,534.67
2635.12,733.4,417.48,556.15
2635.15,740.23,416.99,533.2
2635.19,735.35,410.64,531.25
2635.22,743.65,415.04,547.36
2635.25,752.93,416.99,540.53
2635.29,729.98,408.2,530.27
2635.32,748.05,419.92,538.57
2635.36,735.84,410.64,541.5
2635.39,753.91,407.23,540.04
2635.42,743.65,408.69,540.53
2635.46,737.79,421.87,540.53
2635.49,733.4,405.27,541.5
2635.53,714.36,392.09,546.87
2635.56,732.91,406.74,544.92
2635.59,735.35,413.57,537.11
2635.63,747.56,398.93,531.25
2635.66,737.79,416.99,557.13
2635.7,741.21,428.71,537.6
2635.73,746.09,409.18,541.02
2635.76,728.03,397.46,536.13
2635.8,741.21,408.2,558.59
2635.83,726.07,415.53,537.11
2635.86,746.58,418.46,533.69
2635.9,745.12,408.69,543.95
2635.93,738.77,415.53,544.92
2635.97,739.26,405.27,543.46
2636,734.86,416.99,543.95
2636.03,740.23,412.11,535.16
2636.07,738.77,418.46,538.57
2636.1,754.88,416.99,545.41
2636.14,736.33,417.97,549.32
2636.17,739.26,419.92,549.8
2636.2,750.98,415.04,550.78
2636.24,737.3,415.53,533.69
2636.27,744.63,411.62,537.6
2636.3,745.61,405.76,535.16
2636.34,745.12,421.39,540.53
2636.37,737.79,426.76,544.43
2636.41,742.19,426.76,539.55
2636.44,743.65,404.3,536.62
2636.47,735.35,409.18,529.3
2636.51,730.96,409.18,553.71
2636.54,740.23,419.43,533.2
2636.58,752.93,422.36,534.67
2636.61,726.56,413.09,545.41
2636.64,735.35,408.69,544.43
2636.68,749.02,405.27,540.04
2636.71,739.75,417.48,537.11
2636.75,740.23,420.9,535.64
2636.78,748.05,405.27,548.34
2636.81,738.77,415.04,559.57
2636.85,739.75,407.71,542.97
2636.88,732.91,408.2,533.69
2636.92,740.72,411.62,549.8
2636.95,735.35,409.67,550.78
2636.98,739.75,420.41,540.04
2637.02,742.19,409.18,536.62
2637.05,740.23,423.34,555.66
2637.08,747.07,423.83,528.32
2637.12,737.3,416.02,533.2
2637.15,727.54,413.57,544.92
2637.19,714.84,397.46,555.66
2637.22,736.82,399.9,551.76
2637.25,731.93,423.34,540.53
2637.29,736.33,426.27,535.16
2637.32,737.3,414.06,531.74
2637.36,754.88,409.67,549.8
2637.39,733.4,403.81,541.5
2637.42,737.3,412.11,543.46
2637.46,739.75,412.11,541.5
2637.49,751.95,415.04,540.53
2637.52,738.28,403.81,537.11
2637.56,741.21,415.53,539.06
2637.59,719.24,412.11,537.11
2637.63,739.26,412.11,528.32
2637.66,740.23,416.99,520.51
2637.69,742.19,403.32,534.67
2637.73,744.63,416.02,541.5
2637.76,736.82,423.83,530.76
2637.8,743.16,425.78,533.69
2637.83,721.68,396.48,547.85
2637.86,735.84,413.09,553.71
2637.9,743.65,418.46,534.67
2637.93,734.37,421.87,542.48
2637.97,729,416.02,536.13
2638,725.1,422.85,536.62
2638.03,744.14,414.06,545.41
2638.07,742.19,419.92,547.85
2638.1,739.26,413.57,548.83
2638.14,739.75,428.22,548.34
2638.17,747.56,426.76,543.95
2638.2,746.58,415.53,539.06
2638.24,737.3,407.71,534.18
2638.27,746.58,406.74,549.32
2638.3,733.89,411.62,545.9
2638.34,729.49,415.04,535.64
2638.37,748.05,408.2,550.29
2638.41,738.77,411.62,545.41
2638.44,741.21,414.06,532.23
2638.47,730.96,419.92,535.16
2638.51,744.14,407.23,537.6
2638.54,739.26,409.67,552.73
2638.58,734.86,409.18,542.97
2638.61,742.68,417.97,545.9
2638.64,746.09,418.46,548.83
2638.68,741.7,422.85,536.13
2638.71,739.26,422.36,546.39
2638.75,732.42,413.09,552.25
2638.78,739.26,416.5,544.43
2638.81,733.89,402.83,542.97
2638.85,740.23,436.52,539.55
2638.88,735.35,418.46,549.8
2638.91,730.47,406.25,532.23
2638.95,737.79,413.57,542.97
2638.98,750.49,407.71,548.34
2639.02,741.21,418.46,544.92
2639.05,739.26,430.18,534.18
2639.08,737.79,409.67,540.53
2639.12,734.37,416.99,545.41
2639.15,745.61,414.55,539.55
2639.19,734.37,411.62,543.95
2639.22,751.46,419.92,544.92
2639.25,744.14,415.53,563.48
2639.29,733.4,409.67,549.8
2639.32,737.3,418.46,537.6
2639.35,728.52,413.09,553.71
2639.39,739.75,404.3,549.32
2639.42,730.96,412.6,530.76
2639.46,738.77,428.22,538.57
2639.49,734.86,416.99,543.95
2639.52,750.98,404.79,535.64
2639.56,740.23,416.99,535.16
2639.59,731.93,406.74,537.6
2639.63,751.46,412.6,546.39
2639.66,736.82,405.27,550.29
2639.69,748.05,417.97,549.32
2639.73,736.33,416.5,538.09
2639.76,751.95,406.25,532.71
2639.8,736.33,413.57,531.74
2639.83,726.07,402.83,542.48
2639.86,754.88,413.09,537.11
2639.9,739.75,408.2,546.39
2639.93,736.33,420.41,534.18
2639.97,746.09,416.02,538.09
2640,745.12,412.11,542.48
2640.03,746.58,423.83,532.23
2640.07,748.05,416.02,550.29
2640.1,737.3,413.57,546.87
2640.13,737.3,409.67,544.43
2640.17,732.42,414.55,552.73
2640.2,743.16,412.11,536.13
2640.24,738.77,413.09,545.41
2640.27,748.05,408.69,542.48
2640.3,736.82,415.53,532.71
2640.34,749.51,406.25,539.06
2640.37,747.56,406.25,556.64
2640.41,743.65,427.25,530.27
2640.44,743.65,427.25,529.3
2640.47,737.79,410.64,539.06
2640.51,749.02,424.8,542.97
2640.54,739.75,414.06,525.39
2640.57,725.59,423.34,536.62
2640.61,730.47,410.64,547.36
2640.64,737.79,409.18,543.95
2640.68,745.61,402.34,539.55
2640.71,745.12,403.32,536.62
2640.74,734.37,412.11,535.16
2640.78,741.21,420.41,536.13
2640.81,737.3,413.57,530.27
2640.85,742.19,417.48,550.29
2640.88,734.86,426.27,538.57
2640.91,742.19,422.36,543.95
2640.95,737.3,421.39,548.34
2640.98,741.21,409.18,549.8
2641.02,748.54,423.83,542.97
2641.05,725.59,410.64,551.76
2641.08,743.16,417.97,530.76
2641.12,751.46,417.48,545.9
2641.15,741.21,406.25,543.95
2641.19,741.7,420.9,548.83
2641.22,741.21,404.79,548.34
2641.25,748.54,412.6,538.09
2641.29,731.45,412.6,547.85
2641.32,731.93,414.06,554.69
2641.35,741.21,418.46,543.95
2641.39,748.05,414.55,540.04
2641.42,743.65,428.22,552.73
2641.46,742.19,411.62,553.71
2641.49,750,426.76,554.69
2641.52,735.84,416.5,529.3
2641.56,753.42,415.53,536.62
2641.59,739.75,416.02,540.04
2641.63,742.68,410.16,532.23
2641.66,743.16,414.06,533.69
2641.69,737.79,423.34,551.27
2641.73,748.05,414.55,546.87
2641.76,742.19,417.48,549.8
2641.79,749.02,417.48,530.27
2641.83,752.93,412.11,535.16
2641.86,747.56,415.53,543.46
2641.9,730.96,412.6,537.6
2641.93,740.23,415.04,527.34
2641.96,746.58,416.99,554.2
2642,729,417.97,540.53
2642.03,729.98,412.6,546.39
2642.07,722.66,418.95,542.97
2642.1,723.63,417.97,543.46
2642.13,745.12,406.25,533.69
2642.17,756.84,414.55,536.62
2642.2,748.05,419.92,544.43
2642.24,731.93,405.76,542.48
2642.27,736.33,412.11,532.71
2642.3,744.63,416.99,550.78
2642.34,740.23,414.55,539.55
2642.37,734.86,410.16,538.09
2642.41,741.21,426.27,553.22
2642.44,734.86,413.09,535.64
2642.47,732.91,419.92,541.99
2642.51,749.51,411.62,532.23
2642.54,748.54,428.22,533.2
2642.57,748.54,416.99,539.55
2642.61,739.75,412.11,540.04
2642.64,746.09,417.97,538.09
2642.68,749.02,419.43,544.92
2642.71,741.7,416.02,547.36
2642.74,735.35,413.09,541.5
2642.78,737.3,425.78,533.2
2642.81,729.98,410.64,537.11
2642.85,738.77,401.37,538.09
2642.88,737.79,414.06,558.11
2642.91,741.21,412.6,544.92
2642.95,737.3,406.25,535.64
2642.98,744.14,407.23,536.62
2643.02,751.46,412.11,533.69
2643.05,745.61,413.09,541.5
2643.08,749.02,405.27,539.06
2643.12,737.3,420.41,553.71
2643.15,747.56,417.48,535.16
2643.18,740.72,416.02,539.06
2643.22,739.26,417.97,541.99
2643.25,747.56,411.62,537.6
2643.29,734.86,405.76,546.39
2643.32,731.93,406.74,547.36
2643.35,727.54,400.39,533.2
2643.39,746.58,419.43,545.9
2643.42,734.86,405.76,561.04
2643.46,733.4,417.97,532.71
2643.49,740.72,415.53,537.11
2643.52,747.07,422.36,546.39
2643.56,732.91,427.25,543.46
2643.59,744.63,424.8,549.32
2643.63,747.56,411.62,552.73
2643.66,741.7,414.06,546.87
2643.69,742.19,410.64,545.41
2643.73,732.91,421.87,542.97
2643.76,731.45,420.9,537.6
2643.79,728.52,412.11,549.32
2643.83,751.46,419.92,539.55
2643.86,747.56,421.39,540.04
2643.9,737.3,418.46,539.55
2643.93,736.82,417.48,543.95
2643.96,746.09,423.83,539.55
2644,734.86,413.09,533.2
2644.03,717.29,421.39,545.41
2644.07,734.86,414.06,536.62
2644.1,736.33,416.5,543.95
2644.13,729,425.29,533.2
2644.17,736.33,413.57,534.18
2644.2,739.26,425.29,541.5
2644.24,733.4,425.29,539.55
2644.27,738.77,405.27,542.48
2644.3,735.35,405.76,541.5
2644.34,750,412.6,544.43
2644.37,746.58,399.41,537.11
2644.4,732.91,411.62,548.83
2644.44,735.35,402.34,541.99
2644.47,744.14,407.23,546.39
2644.51,749.51,412.11,543.46
2644.54,752.93,414.55,537.6
2644.57,750,411.13,545.41
2644.61,739.75,413.09,535.16
2644.64,748.54,423.34,540.04
2644.68,733.89,417.97,541.99
2644.71,735.35,415.04,534.67
2644.74,751.46,416.5,536.62
2644.78,741.21,422.36,547.36
2644.81,745.61,423.34,543.46
2644.85,735.84,415.04,542.48
2644.88,735.35,423.83,545.41
2644.91,751.46,416.02,540.04
2644.95,740.23,426.27,544.92
2644.98,735.84,410.16,547.36
2645.01,734.37,423.34,537.11
2645.05,740.23,407.71,541.99
2645.08,750.98,414.06,544.43
2645.12,733.89,411.13,529.3
2645.15,730.96,416.02,538.57
2645.18,738.28,424.8,546.87
2645.22,730.96,422.36,537.11
2645.25,749.51,412.11,551.76
2645.29,738.77,427.25,547.36
2645.32,739.26,414.06,538.57
2645.35,748.05,416.5,541.99
2645.39,730.47,408.69,539.06
2645.42,737.3,429.69,545.41
2645.46,734.86,424.8,551.27
2645.49,736.33,409.67,537.6
2645.52,736.82,415.04,539.55
2645.56,734.37,413.57,530.76
2645.59,752.44,417.48,537.11
2645.62,741.21,415.04,534.18
2645.66,739.75,405.27,544.43
2645.69,734.37,416.02,539.06
2645.73,743.16,418.95,528.81
2645.76,740.23,413.57,548.34
2645.79,739.26,402.83,548.34
2645.83,749.02,405.76,538.57
2645.86,739.26,417.48,554.2
2645.9,730.47,421.87,544.92
2645.93,743.65,408.69,533.69
2645.96,746.58,421.39,543.46
2646,747.56,414.55,534.67
2646.03,739.26,415.04,537.11
2646.07,722.66,416.02,538.57
2646.1,735.35,412.11,545.9
2646.13,721.19,415.04,549.8
2646.17,743.65,401.37,536.13
2646.2,748.05,404.3,541.99
2646.23,737.3,398.93,537.6
2646.27,736.82,421.39,536.13
2646.3,733.89,402.83,523.44
2646.34,748.05,401.86,540.53
2646.37,740.72,415.53,537.11
2646.4,739.75,403.81,535.16
2646.44,732.42,411.13,545.9
2646.47,736.82,410.16,545.9
2646.51,745.61,418.95,543.46
2646.54,726.07,413.09,540.53
2646.57,746.58,416.99,548.34
2646.61,731.45,415.53,546.87
2646.64,735.35,420.9,543.95
2646.68,746.58,418.46,547.85
2646.71,740.23,419.43,539.06
2646.74,733.89,419.43,540.53
2646.78,739.26,417.97,546.87
2646.81,745.12,420.9,545.9
2646.84,736.82,424.32,539.55
2646.88,736.33,416.99,536.62
2646.91,738.77,416.5,543.95
2646.95,730.96,414.55,533.69
2646.98,741.7,415.53,539.06
2647.01,745.12,403.81,533.2
2647.05,747.56,414.06,530.76
2647.08,736.82,416.5,538.57
2647.12,730.47,410.64,548.83
2647.15,728.52,416.99,533.2
2647.18,736.33,414.55,552.25
2647.22,732.42,407.23,541.99
2647.25,725.1,412.11,539.55
2647.29,732.91,419.43,548.34
2647.32,747.07,419.92,538.09
2647.35,743.65,417.97,548.83
2647.39,733.89,406.74,535.16
2647.42,740.72,424.32,535.64
2647.45,743.16,418.95,545.41
2647.49,736.82,422.36,539.06
2647.52,755.86,420.9,549.8
2647.56,749.02,413.57,547.85
2647.59,744.63,419.92,530.76
2647.62,735.84,407.71,537.6
2647.66,761.23,415.53,538.57
2647.69,734.37,425.29,541.99
2647.73,728.52,413.57,536.62
2647.76,751.95,416.5,544.43
2647.79,752.44,415.04,534.18
2647.83,739.75,413.57,540.04
2647.86,744.63,406.25,529.79
2647.9,738.28,410.16,538.57
2647.93,735.84,403.32,535.64
2647.96,737.79,416.5,538.09
2648,727.54,426.27,542.48
2648.03,742.68,407.71,537.6
2648.06,731.45,411.62,540.53
2648.1,748.54,416.02,547.36
2648.13,738.77,414.06,541.99
2648.17,735.84,408.2,547.36
2648.2,733.89,419.43,540.04
2648.23,733.4,418.46,547.85
2648.27,730.96,418.46,549.8
2648.3,746.09,419.43,546.39
2648.34,737.3,415.04,553.22
2648.37,749.51,416.99,542.97
2648.4,752.44,409.18,542.97
2648.44,738.77,419.43,542.97
2648.47,737.79,418.95,532.71
2648.51,748.54,413.09,533.69
2648.54,747.56,416.5,536.62
2648.57,739.75,424.32,541.99
2648.61,745.61,416.02,545.9
2648.64,743.65,411.13,535.16
2648.67,733.89,411.62,541.5
2648.71,730.96,431.64,538.09
2648.74,744.63,418.46,542.48
2648.78,725.1,402.83,544.92
2648.81,736.82,429.69,540.53
2648.84,732.42,415.04,540.04
2648.88,732.91,414.55,535.16
2648.91,727.05,418.95,532.23
2648.95,749.51,409.18,541.02
2648.98,741.7,411.62,539.06
2649.01,741.7,413.57,539.55
2649.05,742.68,418.46,538.57
2649.08,753.91,415.04,528.32
2649.12,745.12,414.55,553.22
2649.15,734.86,428.22,541.99
2649.18,738.28,412.6,535.16
2649.22,735.35,416.02,538.57
2649.25,728.52,419.92,549.32
2649.28,728.52,414.06,540.53
2649.32,737.79,415.04,540.04
2649.35,726.56,420.41,539.55
2649.39,747.07,414.55,530.76
2649.42,744.14,427.73,534.67
2649.45,737.79,410.16,540.04
2649.49,745.61,406.25,539.55
2649.52,745.61,411.62,550.78
2649.56,734.37,413.09,527.83
2649.59,733.4,409.18,535.64
2649.62,728.52,422.36,544.92
2649.66,732.91,413.09,537.6
2649.69,753.42,413.57,532.23
2649.73,743.65,410.16,541.02
2649.76,742.68,411.13,551.27
2649.79,746.58,403.32,541.02
2649.83,735.84,417.97,535.64
2649.86,742.19,413.09,531.25
2649.89,747.07,425.29,541.02
2649.93,730.47,404.3,547.36
2649.96,729,404.3,534.18
2650,733.89,416.02,536.62
2650.03,735.84,416.5,539.06
2650.06,739.75,416.5,537.6
2650.1,747.07,408.2,550.29
2650.13,735.84,424.8,551.27
2650.17,733.89,420.9,541.02
2650.2,740.72,411.13,539.55
2650.23,743.16,422.85,543.95
2650.27,736.82,406.74,546.87
2650.3,736.33,415.04,540.53
2650.34,745.12,416.5,546.39
2650.37,738.28,417.48,541.02
2650.4,741.7,415.04,539.06
2650.44,753.42,409.18,541.02
2650.47,744.14,419.43,540.04
2650.5,743.65,426.76,546.87
2650.54,753.91,412.6,547.85
2650.57,734.37,404.3,545.9
2650.61,737.3,417.48,528.81
2650.64,746.58,419.43,541.02
2650.67,740.23,427.25,533.69
2650.71,738.77,417.97,540.53
2650.74,738.28,405.76,544.43
2650.78,739.26,415.53,537.6
2650.81,731.93,425.78,539.06
2650.84,738.77,424.8,538.57
2650.88,745.61,419.43,539.06
2650.91,744.14,407.23,547.36
2650.95,751.46,421.39,538.09
2650.98,742.19,401.86,550.29
2651.01,748.05,414.06,547.85
2651.05,747.07,409.67,533.69
2651.08,749.02,421.39,542.48
2651.11,733.4,416.02,542.97
2651.15,748.54,416.99,551.27
2651.18,739.75,417.97,542.48
2651.22,730.47,403.32,528.81
2651.25,729,408.69,543.95
2651.28,734.86,417.48,545.41
2651.32,744.14,434.57,542.48
2651.35,727.05,435.55,527.34
2651.39,739.75,416.02,539.06
2651.42,743.16,411.13,549.8
2651.45,741.21,409.18,542.97
2651.49,745.12,400.39,531.25
2651.52,734.37,422.85,544.92
2651.56,736.33,402.83,551.76
2651.59,735.84,419.92,542.48
2651.62,738.77,407.71,547.85
2651.66,733.4,428.71,552.25
2651.69,743.65,412.6,532.23
2651.72,738.77,421.87,539.06
2651.76,736.82,421.39,536.13
2651.79,743.65,413.57,539.06
2651.83,743.65,409.18,555.66
2651.86,746.09,410.64,527.83
2651.89,736.82,417.97,538.09
2651.93,731.93,414.06,547.36
2651.96,736.33,422.85,540.04
2652,751.95,412.11,546.39
2652.03,740.23,429.2,541.02
2652.06,742.19,416.5,535.16
2652.1,737.79,414.06,546.39
2652.13,749.02,404.3,545.9
2652.17,748.05,409.18,552.25
2652.2,742.19,430.66,529.79
2652.23,744.63,414.55,534.67
2652.27,743.65,414.55,555.18
2652.3,728.52,421.87,537.6
2652.33,734.37,405.27,539.55
2652.37,749.51,421.39,540.53
2652.4,753.91,428.22,539.55
2652.44,743.16,407.71,541.02
2652.47,729.49,422.85,551.76
2652.5,745.61,414.55,543.46
2652.54,744.63,420.41,538.57
2652.57,737.3,423.83,547.36
2652.61,738.28,407.23,533.2
2652.64,739.75,413.57,539.06
2652.67,736.82,410.64,551.27
2652.71,737.79,422.85,541.02
2652.74,744.63,428.22,540.04
2652.78,738.28,406.74,545.9
2652.81,740.72,421.87,545.9
2652.84,743.65,419.43,545.41
2652.88,721.19,418.95,541.5
2652.91,741.21,422.36,541.5
2652.95,749.51,419.92,540.04
2652.98,731.93,407.71,536.13
2653.01,734.86,410.64,545.9
2653.05,746.58,406.74,536.13
2653.08,743.65,413.09,536.62
2653.11,742.68,412.11,542.97
2653.15,739.75,406.25,535.16
2653.18,745.12,417.48,535.16
2653.22,734.86,406.25,544.43
2653.25,747.56,403.32,535.64
2653.28,746.09,411.13,542.97
2653.32,741.21,403.81,540.53
2653.35,753.91,410.16,544.92
2653.39,743.65,425.78,536.62
2653.42,737.3,416.5,544.92
2653.45,755.86,407.23,533.2
2653.49,736.82,422.85,537.11
2653.52,744.14,412.6,541.99
2653.55,743.65,416.99,548.83
2653.59,734.37,423.83,542.48
2653.62,743.65,417.97,552.73
2653.66,742.19,424.32,544.43
2653.69,734.86,401.86,539.06
2653.72,749.51,415.53,541.02
2653.76,733.4,413.57,549.32
2653.79,736.33,418.46,544.43
2653.83,739.26,429.69,546.39
2653.86,739.75,416.02,539.55
2653.89,750,415.04,545.9
2653.93,741.21,416.99,544.92
2653.96,745.12,415.53,535.64
2654,752.44,414.55,539.06
2654.03,744.63,426.27,547.85
2654.06,739.75,413.57,547.85
2654.1,741.21,419.92,541.5
2654.13,734.86,427.25,544.43
2654.17,739.26,419.92,546.39
2654.2,738.77,430.66,543.95
2654.23,732.91,408.69,552.73
2654.27,738.77,414.06,541.5
2654.3,724.61,427.25,529.3
2654.33,737.3,415.04,542.97
2654.37,750.98,419.92,545.41
2654.4,750.98,412.6,545.41
2654.44,742.19,417.97,541.5
2654.47,730.47,428.22,533.69
2654.5,745.61,413.57,540.04
2654.54,737.79,416.02,539.55
2654.57,726.56,404.3,533.69
2654.61,743.16,420.9,536.62
2654.64,730.47,424.32,550.29
2654.67,746.09,411.62,540.04
2654.71,746.58,413.57,532.71
2654.74,725.59,416.02,541.99
2654.77,725.59,419.43,544.92
2654.81,739.75,415.04,549.8
2654.84,737.3,416.02,539.06
2654.88,753.91,420.41,533.2
2654.91,745.12,403.81,550.29
